#
# Results on Tue, 17 Dec 2024 20:02:34 GMT
# USER AGENT: Mozilla/5.0 (Windows NT 10.0; Win64; x64) AppleWebKit/537.36 (KHTML, like Gecko) Chrome/131.0.0.0 Safari/537.36
# Design number was non-random = 3
#
# Columns below this comment are as follows:
# 1. Results reception time.
# 2. MD5 hash of participant's IP address.
# 3. Controller name.
# 4. Order number of item.
# 5. Inner element number.
# 6. Label.
# 7. Latin Square Group.
# 8. PennElementType.
# 9. PennElementName.
# 10. Parameter.
# 11. Value.
# 12. EventTime.
# 13. id.
# 14. Comments.
1734465754,a7fa8215f81f1beca289d1497229968d,PennController,1,0,instructions,NULL,PennController,0,_Trial_,Start,1734465573921,undefined,NULL
1734465754,a7fa8215f81f1beca289d1497229968d,PennController,1,0,instructions,NULL,PennController,0,_Header_,Start,1734465573921,undefined,NULL
1734465754,a7fa8215f81f1beca289d1497229968d,PennController,1,0,instructions,NULL,PennController,0,_Header_,End,1734465573921,undefined,NULL
1734465754,a7fa8215f81f1beca289d1497229968d,PennController,1,0,instructions,NULL,Scale,gender,Choice,ж,1734465597419,undefined,NULL
1734465754,a7fa8215f81f1beca289d1497229968d,PennController,1,0,instructions,NULL,Scale,linguist,Choice,да,1734465600175,undefined,NULL
1734465754,a7fa8215f81f1beca289d1497229968d,PennController,1,0,instructions,NULL,TextInput,age,Final,22,1734465601446,undefined,NULL
1734465754,a7fa8215f81f1beca289d1497229968d,PennController,1,0,instructions,NULL,PennController,0,_Trial_,End,1734465601447,undefined,NULL
# 14. У меня самого сейчас возникли вопросы к организаторам этого мероприятия..
# 15. sam.
# 16. R.
# 17. high.
# 18. False.
# 19. Comments.
1734465754,a7fa8215f81f1beca289d1497229968d,PennController,24,0,experiment,NULL,PennController,24,_Trial_,Start,1734465601448,undefined,У меня самого сейчас возникли вопросы к организаторам этого мероприятия.,sam,R,high,False,NULL
1734465754,a7fa8215f81f1beca289d1497229968d,PennController,24,0,experiment,NULL,PennController,24,_Header_,Start,1734465601448,undefined,У меня самого сейчас возникли вопросы к организаторам этого мероприятия.,sam,R,high,False,NULL
1734465754,a7fa8215f81f1beca289d1497229968d,PennController,24,0,experiment,NULL,PennController,24,_Header_,End,1734465601448,undefined,У меня самого сейчас возникли вопросы к организаторам этого мероприятия.,sam,R,high,False,NULL
1734465754,a7fa8215f81f1beca289d1497229968d,PennController,24,0,experiment,NULL,Scale,judgement,Choice,7,1734465609229,undefined,У меня самого сейчас возникли вопросы к организаторам этого мероприятия.,sam,R,high,False,NULL
1734465754,a7fa8215f81f1beca289d1497229968d,PennController,24,0,experiment,NULL,PennController,24,_Trial_,End,1734465609231,undefined,У меня самого сейчас возникли вопросы к организаторам этого мероприятия.,sam,R,high,False,NULL
# 14. У всех у нас сегодня очень интересные доклады..
# 15. vse.
# 16. L.
# 18. True.
1734465754,a7fa8215f81f1beca289d1497229968d,PennController,10,0,experiment,NULL,PennController,10,_Trial_,Start,1734465609233,undefined,У всех у нас сегодня очень интересные доклады.,vse,L,high,True,NULL
1734465754,a7fa8215f81f1beca289d1497229968d,PennController,10,0,experiment,NULL,PennController,10,_Header_,Start,1734465609233,undefined,У всех у нас сегодня очень интересные доклады.,vse,L,high,True,NULL
1734465754,a7fa8215f81f1beca289d1497229968d,PennController,10,0,experiment,NULL,PennController,10,_Header_,End,1734465609233,undefined,У всех у нас сегодня очень интересные доклады.,vse,L,high,True,NULL
1734465754,a7fa8215f81f1beca289d1497229968d,PennController,10,0,experiment,NULL,Scale,judgement,Choice,7,1734465614056,undefined,У всех у нас сегодня очень интересные доклады.,vse,L,high,True,NULL
1734465754,a7fa8215f81f1beca289d1497229968d,PennController,10,0,experiment,NULL,PennController,10,_Trial_,End,1734465614057,undefined,У всех у нас сегодня очень интересные доклады.,vse,L,high,True,NULL
# 14. Я каждый раз прошу у него помощи уставшего..
# 15. depic.
# 16. E.
# 17. low.
# 18. False.
1734465754,a7fa8215f81f1beca289d1497229968d,PennController,41,0,experiment,NULL,PennController,41,_Trial_,Start,1734465614059,undefined,Я каждый раз прошу у него помощи уставшего.,depic,E,low,False,NULL
1734465754,a7fa8215f81f1beca289d1497229968d,PennController,41,0,experiment,NULL,PennController,41,_Header_,Start,1734465614059,undefined,Я каждый раз прошу у него помощи уставшего.,depic,E,low,False,NULL
1734465754,a7fa8215f81f1beca289d1497229968d,PennController,41,0,experiment,NULL,PennController,41,_Header_,End,1734465614059,undefined,Я каждый раз прошу у него помощи уставшего.,depic,E,low,False,NULL
1734465754,a7fa8215f81f1beca289d1497229968d,PennController,41,0,experiment,NULL,Scale,judgement,Choice,1,1734465619192,undefined,Я каждый раз прошу у него помощи уставшего.,depic,E,low,False,NULL
1734465754,a7fa8215f81f1beca289d1497229968d,PennController,41,0,experiment,NULL,PennController,41,_Trial_,End,1734465619193,undefined,Я каждый раз прошу у него помощи уставшего.,depic,E,low,False,NULL
# 14. У нас у всех сегодня очень интересные доклады..
# 15. vse.
# 16. R.
# 17. high.
# 18. True.
1734465754,a7fa8215f81f1beca289d1497229968d,PennController,2,0,experiment,NULL,PennController,2,_Trial_,Start,1734465619193,undefined,У нас у всех сегодня очень интересные доклады.,vse,R,high,True,NULL
1734465754,a7fa8215f81f1beca289d1497229968d,PennController,2,0,experiment,NULL,PennController,2,_Header_,Start,1734465619193,undefined,У нас у всех сегодня очень интересные доклады.,vse,R,high,True,NULL
1734465754,a7fa8215f81f1beca289d1497229968d,PennController,2,0,experiment,NULL,PennController,2,_Header_,End,1734465619193,undefined,У нас у всех сегодня очень интересные доклады.,vse,R,high,True,NULL
1734465754,a7fa8215f81f1beca289d1497229968d,PennController,2,0,experiment,NULL,Scale,judgement,Choice,7,1734465621372,undefined,У нас у всех сегодня очень интересные доклады.,vse,R,high,True,NULL
1734465754,a7fa8215f81f1beca289d1497229968d,PennController,2,0,experiment,NULL,PennController,2,_Trial_,End,1734465621373,undefined,У нас у всех сегодня очень интересные доклады.,vse,R,high,True,NULL
# 14. И у больного него часто получается лучше%2C чем других..
# 15. depic.
# 16. L.
# 18. False.
1734465754,a7fa8215f81f1beca289d1497229968d,PennController,33,0,experiment,NULL,PennController,33,_Trial_,Start,1734465621375,undefined,И у больного него часто получается лучше%2C чем других.,depic,L,high,False,NULL
1734465754,a7fa8215f81f1beca289d1497229968d,PennController,33,0,experiment,NULL,PennController,33,_Header_,Start,1734465621375,undefined,И у больного него часто получается лучше%2C чем других.,depic,L,high,False,NULL
1734465754,a7fa8215f81f1beca289d1497229968d,PennController,33,0,experiment,NULL,PennController,33,_Header_,End,1734465621375,undefined,И у больного него часто получается лучше%2C чем других.,depic,L,high,False,NULL
1734465754,a7fa8215f81f1beca289d1497229968d,PennController,33,0,experiment,NULL,Scale,judgement,Choice,1,1734465626914,undefined,И у больного него часто получается лучше%2C чем других.,depic,L,high,False,NULL
1734465754,a7fa8215f81f1beca289d1497229968d,PennController,33,0,experiment,NULL,PennController,33,_Trial_,End,1734465626916,undefined,И у больного него часто получается лучше%2C чем других.,depic,L,high,False,NULL
# 14. У них каждого небось по куче денег..
# 15. kazhdy.
# 16. R.
1734465754,a7fa8215f81f1beca289d1497229968d,PennController,23,0,experiment,NULL,PennController,23,_Trial_,Start,1734465626917,undefined,У них каждого небось по куче денег.,kazhdy,R,high,False,NULL
1734465754,a7fa8215f81f1beca289d1497229968d,PennController,23,0,experiment,NULL,PennController,23,_Header_,Start,1734465626917,undefined,У них каждого небось по куче денег.,kazhdy,R,high,False,NULL
1734465754,a7fa8215f81f1beca289d1497229968d,PennController,23,0,experiment,NULL,PennController,23,_Header_,End,1734465626918,undefined,У них каждого небось по куче денег.,kazhdy,R,high,False,NULL
1734465754,a7fa8215f81f1beca289d1497229968d,PennController,23,0,experiment,NULL,Scale,judgement,Choice,5,1734465631065,undefined,У них каждого небось по куче денег.,kazhdy,R,high,False,NULL
1734465754,a7fa8215f81f1beca289d1497229968d,PennController,23,0,experiment,NULL,PennController,23,_Trial_,End,1734465631066,undefined,У них каждого небось по куче денег.,kazhdy,R,high,False,NULL
# 14. У нас недавно всех произошло трагическое событие..
# 15. vse.
# 16. E.
1734465754,a7fa8215f81f1beca289d1497229968d,PennController,34,0,experiment,NULL,PennController,34,_Trial_,Start,1734465631068,undefined,У нас недавно всех произошло трагическое событие.,vse,E,high,False,NULL
1734465754,a7fa8215f81f1beca289d1497229968d,PennController,34,0,experiment,NULL,PennController,34,_Header_,Start,1734465631068,undefined,У нас недавно всех произошло трагическое событие.,vse,E,high,False,NULL
1734465754,a7fa8215f81f1beca289d1497229968d,PennController,34,0,experiment,NULL,PennController,34,_Header_,End,1734465631068,undefined,У нас недавно всех произошло трагическое событие.,vse,E,high,False,NULL
1734465754,a7fa8215f81f1beca289d1497229968d,PennController,34,0,experiment,NULL,Scale,judgement,Choice,1,1734465635341,undefined,У нас недавно всех произошло трагическое событие.,vse,E,high,False,NULL
1734465754,a7fa8215f81f1beca289d1497229968d,PennController,34,0,experiment,NULL,PennController,34,_Trial_,End,1734465635342,undefined,У нас недавно всех произошло трагическое событие.,vse,E,high,False,NULL
# 14. У всех нас недавно произошло трагическое событие..
# 16. L.
1734465754,a7fa8215f81f1beca289d1497229968d,PennController,30,0,experiment,NULL,PennController,30,_Trial_,Start,1734465635343,undefined,У всех нас недавно произошло трагическое событие.,vse,L,high,False,NULL
1734465754,a7fa8215f81f1beca289d1497229968d,PennController,30,0,experiment,NULL,PennController,30,_Header_,Start,1734465635343,undefined,У всех нас недавно произошло трагическое событие.,vse,L,high,False,NULL
1734465754,a7fa8215f81f1beca289d1497229968d,PennController,30,0,experiment,NULL,PennController,30,_Header_,End,1734465635343,undefined,У всех нас недавно произошло трагическое событие.,vse,L,high,False,NULL
1734465754,a7fa8215f81f1beca289d1497229968d,PennController,30,0,experiment,NULL,Scale,judgement,Choice,7,1734465637719,undefined,У всех нас недавно произошло трагическое событие.,vse,L,high,False,NULL
1734465754,a7fa8215f81f1beca289d1497229968d,PennController,30,0,experiment,NULL,PennController,30,_Trial_,End,1734465637720,undefined,У всех нас недавно произошло трагическое событие.,vse,L,high,False,NULL
# 14. Она проверила у нас домашнее задание каждого..
# 15. kazhdy.
# 16. E.
# 17. low.
1734465754,a7fa8215f81f1beca289d1497229968d,PennController,39,0,experiment,NULL,PennController,39,_Trial_,Start,1734465637722,undefined,Она проверила у нас домашнее задание каждого.,kazhdy,E,low,False,NULL
1734465754,a7fa8215f81f1beca289d1497229968d,PennController,39,0,experiment,NULL,PennController,39,_Header_,Start,1734465637722,undefined,Она проверила у нас домашнее задание каждого.,kazhdy,E,low,False,NULL
1734465754,a7fa8215f81f1beca289d1497229968d,PennController,39,0,experiment,NULL,PennController,39,_Header_,End,1734465637722,undefined,Она проверила у нас домашнее задание каждого.,kazhdy,E,low,False,NULL
1734465754,a7fa8215f81f1beca289d1497229968d,PennController,39,0,experiment,NULL,Scale,judgement,Choice,1,1734465640729,undefined,Она проверила у нас домашнее задание каждого.,kazhdy,E,low,False,NULL
1734465754,a7fa8215f81f1beca289d1497229968d,PennController,39,0,experiment,NULL,PennController,39,_Trial_,End,1734465640729,undefined,Она проверила у нас домашнее задание каждого.,kazhdy,E,low,False,NULL
# 14. У самого меня сейчас возникли вопросы к организаторам этого мероприятия..
# 15. sam.
# 16. L.
# 17. high.
1734465754,a7fa8215f81f1beca289d1497229968d,PennController,32,0,experiment,NULL,PennController,32,_Trial_,Start,1734465640730,undefined,У самого меня сейчас возникли вопросы к организаторам этого мероприятия.,sam,L,high,False,NULL
1734465754,a7fa8215f81f1beca289d1497229968d,PennController,32,0,experiment,NULL,PennController,32,_Header_,Start,1734465640730,undefined,У самого меня сейчас возникли вопросы к организаторам этого мероприятия.,sam,L,high,False,NULL
1734465754,a7fa8215f81f1beca289d1497229968d,PennController,32,0,experiment,NULL,PennController,32,_Header_,End,1734465640730,undefined,У самого меня сейчас возникли вопросы к организаторам этого мероприятия.,sam,L,high,False,NULL
1734465754,a7fa8215f81f1beca289d1497229968d,PennController,32,0,experiment,NULL,Scale,judgement,Choice,1,1734465648300,undefined,У самого меня сейчас возникли вопросы к организаторам этого мероприятия.,sam,L,high,False,NULL
1734465754,a7fa8215f81f1beca289d1497229968d,PennController,32,0,experiment,NULL,PennController,32,_Trial_,End,1734465648302,undefined,У самого меня сейчас возникли вопросы к организаторам этого мероприятия.,sam,L,high,False,NULL
# 14. У тебя и у пьяного иногда отлично голова работает..
# 15. depic.
# 16. R.
# 18. True.
1734465754,a7fa8215f81f1beca289d1497229968d,PennController,5,0,experiment,NULL,PennController,5,_Trial_,Start,1734465648304,undefined,У тебя и у пьяного иногда отлично голова работает.,depic,R,high,True,NULL
1734465754,a7fa8215f81f1beca289d1497229968d,PennController,5,0,experiment,NULL,PennController,5,_Header_,Start,1734465648304,undefined,У тебя и у пьяного иногда отлично голова работает.,depic,R,high,True,NULL
1734465754,a7fa8215f81f1beca289d1497229968d,PennController,5,0,experiment,NULL,PennController,5,_Header_,End,1734465648304,undefined,У тебя и у пьяного иногда отлично голова работает.,depic,R,high,True,NULL
1734465754,a7fa8215f81f1beca289d1497229968d,PennController,5,0,experiment,NULL,Scale,judgement,Choice,7,1734465651742,undefined,У тебя и у пьяного иногда отлично голова работает.,depic,R,high,True,NULL
1734465754,a7fa8215f81f1beca289d1497229968d,PennController,5,0,experiment,NULL,PennController,5,_Trial_,End,1734465651743,undefined,У тебя и у пьяного иногда отлично голова работает.,depic,R,high,True,NULL
# 14. У него теперь у самого почти нет денег..
# 15. sam.
# 16. E.
1734465754,a7fa8215f81f1beca289d1497229968d,PennController,16,0,experiment,NULL,PennController,16,_Trial_,Start,1734465651744,undefined,У него теперь у самого почти нет денег.,sam,E,high,True,NULL
1734465754,a7fa8215f81f1beca289d1497229968d,PennController,16,0,experiment,NULL,PennController,16,_Header_,Start,1734465651744,undefined,У него теперь у самого почти нет денег.,sam,E,high,True,NULL
1734465754,a7fa8215f81f1beca289d1497229968d,PennController,16,0,experiment,NULL,PennController,16,_Header_,End,1734465651744,undefined,У него теперь у самого почти нет денег.,sam,E,high,True,NULL
1734465754,a7fa8215f81f1beca289d1497229968d,PennController,16,0,experiment,NULL,Scale,judgement,Choice,6,1734465656053,undefined,У него теперь у самого почти нет денег.,sam,E,high,True,NULL
1734465754,a7fa8215f81f1beca289d1497229968d,PennController,16,0,experiment,NULL,PennController,16,_Trial_,End,1734465656054,undefined,У него теперь у самого почти нет денег.,sam,E,high,True,NULL
# 14. Я каждый раз прошу помощи у него уставшего..
# 15. depic.
# 16. R.
# 17. low.
# 18. False.
1734465754,a7fa8215f81f1beca289d1497229968d,PennController,29,0,experiment,NULL,PennController,29,_Trial_,Start,1734465656056,undefined,Я каждый раз прошу помощи у него уставшего.,depic,R,low,False,NULL
1734465754,a7fa8215f81f1beca289d1497229968d,PennController,29,0,experiment,NULL,PennController,29,_Header_,Start,1734465656056,undefined,Я каждый раз прошу помощи у него уставшего.,depic,R,low,False,NULL
1734465754,a7fa8215f81f1beca289d1497229968d,PennController,29,0,experiment,NULL,PennController,29,_Header_,End,1734465656056,undefined,Я каждый раз прошу помощи у него уставшего.,depic,R,low,False,NULL
1734465754,a7fa8215f81f1beca289d1497229968d,PennController,29,0,experiment,NULL,Scale,judgement,Choice,3,1734465661427,undefined,Я каждый раз прошу помощи у него уставшего.,depic,R,low,False,NULL
1734465754,a7fa8215f81f1beca289d1497229968d,PennController,29,0,experiment,NULL,PennController,29,_Trial_,End,1734465661428,undefined,Я каждый раз прошу помощи у него уставшего.,depic,R,low,False,NULL
# 14. У него у самого теперь почти нет денег..
# 15. sam.
# 17. high.
# 18. True.
1734465754,a7fa8215f81f1beca289d1497229968d,PennController,4,0,experiment,NULL,PennController,4,_Trial_,Start,1734465661428,undefined,У него у самого теперь почти нет денег.,sam,R,high,True,NULL
1734465754,a7fa8215f81f1beca289d1497229968d,PennController,4,0,experiment,NULL,PennController,4,_Header_,Start,1734465661428,undefined,У него у самого теперь почти нет денег.,sam,R,high,True,NULL
1734465754,a7fa8215f81f1beca289d1497229968d,PennController,4,0,experiment,NULL,PennController,4,_Header_,End,1734465661428,undefined,У него у самого теперь почти нет денег.,sam,R,high,True,NULL
1734465754,a7fa8215f81f1beca289d1497229968d,PennController,4,0,experiment,NULL,Scale,judgement,Choice,7,1734465664935,undefined,У него у самого теперь почти нет денег.,sam,R,high,True,NULL
1734465754,a7fa8215f81f1beca289d1497229968d,PennController,4,0,experiment,NULL,PennController,4,_Trial_,End,1734465664936,undefined,У него у самого теперь почти нет денег.,sam,R,high,True,NULL
# 14. Мы уже бывали в гостях у них у всех..
# 15. vse.
# 17. low.
1734465754,a7fa8215f81f1beca289d1497229968d,PennController,6,0,experiment,NULL,PennController,6,_Trial_,Start,1734465664937,undefined,Мы уже бывали в гостях у них у всех.,vse,R,low,True,NULL
1734465754,a7fa8215f81f1beca289d1497229968d,PennController,6,0,experiment,NULL,PennController,6,_Header_,Start,1734465664937,undefined,Мы уже бывали в гостях у них у всех.,vse,R,low,True,NULL
1734465754,a7fa8215f81f1beca289d1497229968d,PennController,6,0,experiment,NULL,PennController,6,_Header_,End,1734465664937,undefined,Мы уже бывали в гостях у них у всех.,vse,R,low,True,NULL
1734465754,a7fa8215f81f1beca289d1497229968d,PennController,6,0,experiment,NULL,Scale,judgement,Choice,7,1734465667617,undefined,Мы уже бывали в гостях у них у всех.,vse,R,low,True,NULL
1734465754,a7fa8215f81f1beca289d1497229968d,PennController,6,0,experiment,NULL,PennController,6,_Trial_,End,1734465667618,undefined,Мы уже бывали в гостях у них у всех.,vse,R,low,True,NULL
# 14. Я узнал все детали у нее у самой..
# 15. sam.
1734465754,a7fa8215f81f1beca289d1497229968d,PennController,8,0,experiment,NULL,PennController,8,_Trial_,Start,1734465667620,undefined,Я узнал все детали у нее у самой.,sam,R,low,True,NULL
1734465754,a7fa8215f81f1beca289d1497229968d,PennController,8,0,experiment,NULL,PennController,8,_Header_,Start,1734465667620,undefined,Я узнал все детали у нее у самой.,sam,R,low,True,NULL
1734465754,a7fa8215f81f1beca289d1497229968d,PennController,8,0,experiment,NULL,PennController,8,_Header_,End,1734465667620,undefined,Я узнал все детали у нее у самой.,sam,R,low,True,NULL
1734465754,a7fa8215f81f1beca289d1497229968d,PennController,8,0,experiment,NULL,Scale,judgement,Choice,1,1734465671128,undefined,Я узнал все детали у нее у самой.,sam,R,low,True,NULL
1734465754,a7fa8215f81f1beca289d1497229968d,PennController,8,0,experiment,NULL,PennController,8,_Trial_,End,1734465671130,undefined,Я узнал все детали у нее у самой.,sam,R,low,True,NULL
# 14. Я никогда раньше не был у него у больного..
# 15. depic.
1734465754,a7fa8215f81f1beca289d1497229968d,PennController,9,0,experiment,NULL,PennController,9,_Trial_,Start,1734465671132,undefined,Я никогда раньше не был у него у больного.,depic,R,low,True,NULL
1734465754,a7fa8215f81f1beca289d1497229968d,PennController,9,0,experiment,NULL,PennController,9,_Header_,Start,1734465671132,undefined,Я никогда раньше не был у него у больного.,depic,R,low,True,NULL
1734465754,a7fa8215f81f1beca289d1497229968d,PennController,9,0,experiment,NULL,PennController,9,_Header_,End,1734465671132,undefined,Я никогда раньше не был у него у больного.,depic,R,low,True,NULL
1734465754,a7fa8215f81f1beca289d1497229968d,PennController,9,0,experiment,NULL,Scale,judgement,Choice,1,1734465672872,undefined,Я никогда раньше не был у него у больного.,depic,R,low,True,NULL
1734465754,a7fa8215f81f1beca289d1497229968d,PennController,9,0,experiment,NULL,PennController,9,_Trial_,End,1734465672873,undefined,Я никогда раньше не был у него у больного.,depic,R,low,True,NULL
# 14. У самого у него теперь почти нет денег..
# 15. sam.
# 16. L.
# 17. high.
1734465754,a7fa8215f81f1beca289d1497229968d,PennController,12,0,experiment,NULL,PennController,12,_Trial_,Start,1734465672874,undefined,У самого у него теперь почти нет денег.,sam,L,high,True,NULL
1734465754,a7fa8215f81f1beca289d1497229968d,PennController,12,0,experiment,NULL,PennController,12,_Header_,Start,1734465672874,undefined,У самого у него теперь почти нет денег.,sam,L,high,True,NULL
1734465754,a7fa8215f81f1beca289d1497229968d,PennController,12,0,experiment,NULL,PennController,12,_Header_,End,1734465672875,undefined,У самого у него теперь почти нет денег.,sam,L,high,True,NULL
1734465754,a7fa8215f81f1beca289d1497229968d,PennController,12,0,experiment,NULL,Scale,judgement,Choice,1,1734465675897,undefined,У самого у него теперь почти нет денег.,sam,L,high,True,NULL
1734465754,a7fa8215f81f1beca289d1497229968d,PennController,12,0,experiment,NULL,PennController,12,_Trial_,End,1734465675898,undefined,У самого у него теперь почти нет денег.,sam,L,high,True,NULL
# 14. И у пьяного у тебя иногда отлично голова работает..
# 15. depic.
1734465754,a7fa8215f81f1beca289d1497229968d,PennController,13,0,experiment,NULL,PennController,13,_Trial_,Start,1734465675900,undefined,И у пьяного у тебя иногда отлично голова работает.,depic,L,high,True,NULL
1734465754,a7fa8215f81f1beca289d1497229968d,PennController,13,0,experiment,NULL,PennController,13,_Header_,Start,1734465675900,undefined,И у пьяного у тебя иногда отлично голова работает.,depic,L,high,True,NULL
1734465754,a7fa8215f81f1beca289d1497229968d,PennController,13,0,experiment,NULL,PennController,13,_Header_,End,1734465675901,undefined,И у пьяного у тебя иногда отлично голова работает.,depic,L,high,True,NULL
1734465754,a7fa8215f81f1beca289d1497229968d,PennController,13,0,experiment,NULL,Scale,judgement,Choice,1,1734465680693,undefined,И у пьяного у тебя иногда отлично голова работает.,depic,L,high,True,NULL
1734465754,a7fa8215f81f1beca289d1497229968d,PennController,13,0,experiment,NULL,PennController,13,_Trial_,End,1734465680695,undefined,И у пьяного у тебя иногда отлично голова работает.,depic,L,high,True,NULL
# 14. У них небось каждого по куче денег..
# 15. kazhdy.
# 16. E.
# 18. False.
1734465754,a7fa8215f81f1beca289d1497229968d,PennController,35,0,experiment,NULL,PennController,35,_Trial_,Start,1734465680696,undefined,У них небось каждого по куче денег.,kazhdy,E,high,False,NULL
1734465754,a7fa8215f81f1beca289d1497229968d,PennController,35,0,experiment,NULL,PennController,35,_Header_,Start,1734465680696,undefined,У них небось каждого по куче денег.,kazhdy,E,high,False,NULL
1734465754,a7fa8215f81f1beca289d1497229968d,PennController,35,0,experiment,NULL,PennController,35,_Header_,End,1734465680696,undefined,У них небось каждого по куче денег.,kazhdy,E,high,False,NULL
1734465754,a7fa8215f81f1beca289d1497229968d,PennController,35,0,experiment,NULL,Scale,judgement,Choice,1,1734465682798,undefined,У них небось каждого по куче денег.,kazhdy,E,high,False,NULL
1734465754,a7fa8215f81f1beca289d1497229968d,PennController,35,0,experiment,NULL,PennController,35,_Trial_,End,1734465682799,undefined,У них небось каждого по куче денег.,kazhdy,E,high,False,NULL
# 14. Я узнал у нее все детали у самой..
# 15. sam.
# 17. low.
# 18. True.
1734465754,a7fa8215f81f1beca289d1497229968d,PennController,20,0,experiment,NULL,PennController,20,_Trial_,Start,1734465682800,undefined,Я узнал у нее все детали у самой.,sam,E,low,True,NULL
1734465754,a7fa8215f81f1beca289d1497229968d,PennController,20,0,experiment,NULL,PennController,20,_Header_,Start,1734465682800,undefined,Я узнал у нее все детали у самой.,sam,E,low,True,NULL
1734465754,a7fa8215f81f1beca289d1497229968d,PennController,20,0,experiment,NULL,PennController,20,_Header_,End,1734465682800,undefined,Я узнал у нее все детали у самой.,sam,E,low,True,NULL
1734465754,a7fa8215f81f1beca289d1497229968d,PennController,20,0,experiment,NULL,Scale,judgement,Choice,1,1734465685296,undefined,Я узнал у нее все детали у самой.,sam,E,low,True,NULL
1734465754,a7fa8215f81f1beca289d1497229968d,PennController,20,0,experiment,NULL,PennController,20,_Trial_,End,1734465685297,undefined,Я узнал у нее все детали у самой.,sam,E,low,True,NULL
# 14. У нас сегодня у всех очень интересные доклады..
# 15. vse.
# 17. high.
1734465754,a7fa8215f81f1beca289d1497229968d,PennController,14,0,experiment,NULL,PennController,14,_Trial_,Start,1734465685298,undefined,У нас сегодня у всех очень интересные доклады.,vse,E,high,True,NULL
1734465754,a7fa8215f81f1beca289d1497229968d,PennController,14,0,experiment,NULL,PennController,14,_Header_,Start,1734465685298,undefined,У нас сегодня у всех очень интересные доклады.,vse,E,high,True,NULL
1734465754,a7fa8215f81f1beca289d1497229968d,PennController,14,0,experiment,NULL,PennController,14,_Header_,End,1734465685298,undefined,У нас сегодня у всех очень интересные доклады.,vse,E,high,True,NULL
1734465754,a7fa8215f81f1beca289d1497229968d,PennController,14,0,experiment,NULL,Scale,judgement,Choice,7,1734465688940,undefined,У нас сегодня у всех очень интересные доклады.,vse,E,high,True,NULL
1734465754,a7fa8215f81f1beca289d1497229968d,PennController,14,0,experiment,NULL,PennController,14,_Trial_,End,1734465688941,undefined,У нас сегодня у всех очень интересные доклады.,vse,E,high,True,NULL
# 14. Она проверила домашнее задание у нас каждого..
# 15. kazhdy.
# 16. R.
# 17. low.
# 18. False.
1734465754,a7fa8215f81f1beca289d1497229968d,PennController,27,0,experiment,NULL,PennController,27,_Trial_,Start,1734465688943,undefined,Она проверила домашнее задание у нас каждого.,kazhdy,R,low,False,NULL
1734465754,a7fa8215f81f1beca289d1497229968d,PennController,27,0,experiment,NULL,PennController,27,_Header_,Start,1734465688943,undefined,Она проверила домашнее задание у нас каждого.,kazhdy,R,low,False,NULL
1734465754,a7fa8215f81f1beca289d1497229968d,PennController,27,0,experiment,NULL,PennController,27,_Header_,End,1734465688943,undefined,Она проверила домашнее задание у нас каждого.,kazhdy,R,low,False,NULL
1734465754,a7fa8215f81f1beca289d1497229968d,PennController,27,0,experiment,NULL,Scale,judgement,Choice,1,1734465691612,undefined,Она проверила домашнее задание у нас каждого.,kazhdy,R,low,False,NULL
1734465754,a7fa8215f81f1beca289d1497229968d,PennController,27,0,experiment,NULL,PennController,27,_Trial_,End,1734465691613,undefined,Она проверила домашнее задание у нас каждого.,kazhdy,R,low,False,NULL
# 14. Она мечтала у него обо всем спросить самого..
# 15. sam.
# 16. E.
1734465754,a7fa8215f81f1beca289d1497229968d,PennController,40,0,experiment,NULL,PennController,40,_Trial_,Start,1734465691615,undefined,Она мечтала у него обо всем спросить самого.,sam,E,low,False,NULL
1734465754,a7fa8215f81f1beca289d1497229968d,PennController,40,0,experiment,NULL,PennController,40,_Header_,Start,1734465691615,undefined,Она мечтала у него обо всем спросить самого.,sam,E,low,False,NULL
1734465754,a7fa8215f81f1beca289d1497229968d,PennController,40,0,experiment,NULL,PennController,40,_Header_,End,1734465691615,undefined,Она мечтала у него обо всем спросить самого.,sam,E,low,False,NULL
1734465754,a7fa8215f81f1beca289d1497229968d,PennController,40,0,experiment,NULL,Scale,judgement,Choice,1,1734465695283,undefined,Она мечтала у него обо всем спросить самого.,sam,E,low,False,NULL
1734465754,a7fa8215f81f1beca289d1497229968d,PennController,40,0,experiment,NULL,PennController,40,_Trial_,End,1734465695283,undefined,Она мечтала у него обо всем спросить самого.,sam,E,low,False,NULL
# 14. Мы у них уже бывали в гостях у всех..
# 15. vse.
# 18. True.
1734465754,a7fa8215f81f1beca289d1497229968d,PennController,18,0,experiment,NULL,PennController,18,_Trial_,Start,1734465695284,undefined,Мы у них уже бывали в гостях у всех.,vse,E,low,True,NULL
1734465754,a7fa8215f81f1beca289d1497229968d,PennController,18,0,experiment,NULL,PennController,18,_Header_,Start,1734465695284,undefined,Мы у них уже бывали в гостях у всех.,vse,E,low,True,NULL
1734465754,a7fa8215f81f1beca289d1497229968d,PennController,18,0,experiment,NULL,PennController,18,_Header_,End,1734465695284,undefined,Мы у них уже бывали в гостях у всех.,vse,E,low,True,NULL
1734465754,a7fa8215f81f1beca289d1497229968d,PennController,18,0,experiment,NULL,Scale,judgement,Choice,4,1734465699351,undefined,Мы у них уже бывали в гостях у всех.,vse,E,low,True,NULL
1734465754,a7fa8215f81f1beca289d1497229968d,PennController,18,0,experiment,NULL,PennController,18,_Trial_,End,1734465699352,undefined,Мы у них уже бывали в гостях у всех.,vse,E,low,True,NULL
# 14. У него часто и больного получается лучше%2C чем других..
# 15. depic.
# 17. high.
# 18. False.
1734465754,a7fa8215f81f1beca289d1497229968d,PennController,37,0,experiment,NULL,PennController,37,_Trial_,Start,1734465699354,undefined,У него часто и больного получается лучше%2C чем других.,depic,E,high,False,NULL
1734465754,a7fa8215f81f1beca289d1497229968d,PennController,37,0,experiment,NULL,PennController,37,_Header_,Start,1734465699354,undefined,У него часто и больного получается лучше%2C чем других.,depic,E,high,False,NULL
1734465754,a7fa8215f81f1beca289d1497229968d,PennController,37,0,experiment,NULL,PennController,37,_Header_,End,1734465699354,undefined,У него часто и больного получается лучше%2C чем других.,depic,E,high,False,NULL
1734465754,a7fa8215f81f1beca289d1497229968d,PennController,37,0,experiment,NULL,Scale,judgement,Choice,1,1734465702279,undefined,У него часто и больного получается лучше%2C чем других.,depic,E,high,False,NULL
1734465754,a7fa8215f81f1beca289d1497229968d,PennController,37,0,experiment,NULL,PennController,37,_Trial_,End,1734465702281,undefined,У него часто и больного получается лучше%2C чем других.,depic,E,high,False,NULL
# 14. Не волнуйся%2C он у нас это спрашивал у каждого..
# 15. kazhdy.
# 17. low.
# 18. True.
1734465754,a7fa8215f81f1beca289d1497229968d,PennController,19,0,experiment,NULL,PennController,19,_Trial_,Start,1734465702282,undefined,Не волнуйся%2C он у нас это спрашивал у каждого.,kazhdy,E,low,True,NULL
1734465754,a7fa8215f81f1beca289d1497229968d,PennController,19,0,experiment,NULL,PennController,19,_Header_,Start,1734465702282,undefined,Не волнуйся%2C он у нас это спрашивал у каждого.,kazhdy,E,low,True,NULL
1734465754,a7fa8215f81f1beca289d1497229968d,PennController,19,0,experiment,NULL,PennController,19,_Header_,End,1734465702282,undefined,Не волнуйся%2C он у нас это спрашивал у каждого.,kazhdy,E,low,True,NULL
1734465754,a7fa8215f81f1beca289d1497229968d,PennController,19,0,experiment,NULL,Scale,judgement,Choice,7,1734465706217,undefined,Не волнуйся%2C он у нас это спрашивал у каждого.,kazhdy,E,low,True,NULL
1734465754,a7fa8215f81f1beca289d1497229968d,PennController,19,0,experiment,NULL,PennController,19,_Trial_,End,1734465706219,undefined,Не волнуйся%2C он у нас это спрашивал у каждого.,kazhdy,E,low,True,NULL
# 14. У тебя иногда и у пьяного отлично голова работает..
# 15. depic.
# 17. high.
1734465754,a7fa8215f81f1beca289d1497229968d,PennController,17,0,experiment,NULL,PennController,17,_Trial_,Start,1734465706220,undefined,У тебя иногда и у пьяного отлично голова работает.,depic,E,high,True,NULL
1734465754,a7fa8215f81f1beca289d1497229968d,PennController,17,0,experiment,NULL,PennController,17,_Header_,Start,1734465706220,undefined,У тебя иногда и у пьяного отлично голова работает.,depic,E,high,True,NULL
1734465754,a7fa8215f81f1beca289d1497229968d,PennController,17,0,experiment,NULL,PennController,17,_Header_,End,1734465706220,undefined,У тебя иногда и у пьяного отлично голова работает.,depic,E,high,True,NULL
1734465754,a7fa8215f81f1beca289d1497229968d,PennController,17,0,experiment,NULL,Scale,judgement,Choice,7,1734465710725,undefined,У тебя иногда и у пьяного отлично голова работает.,depic,E,high,True,NULL
1734465754,a7fa8215f81f1beca289d1497229968d,PennController,17,0,experiment,NULL,PennController,17,_Trial_,End,1734465710726,undefined,У тебя иногда и у пьяного отлично голова работает.,depic,E,high,True,NULL
# 14. У меня сейчас самого возникли вопросы к организаторам этого мероприятия..
# 15. sam.
# 18. False.
1734465754,a7fa8215f81f1beca289d1497229968d,PennController,36,0,experiment,NULL,PennController,36,_Trial_,Start,1734465710728,undefined,У меня сейчас самого возникли вопросы к организаторам этого мероприятия.,sam,E,high,False,NULL
1734465754,a7fa8215f81f1beca289d1497229968d,PennController,36,0,experiment,NULL,PennController,36,_Header_,Start,1734465710728,undefined,У меня сейчас самого возникли вопросы к организаторам этого мероприятия.,sam,E,high,False,NULL
1734465754,a7fa8215f81f1beca289d1497229968d,PennController,36,0,experiment,NULL,PennController,36,_Header_,End,1734465710728,undefined,У меня сейчас самого возникли вопросы к организаторам этого мероприятия.,sam,E,high,False,NULL
1734465754,a7fa8215f81f1beca289d1497229968d,PennController,36,0,experiment,NULL,Scale,judgement,Choice,1,1734465715538,undefined,У меня сейчас самого возникли вопросы к организаторам этого мероприятия.,sam,E,high,False,NULL
1734465754,a7fa8215f81f1beca289d1497229968d,PennController,36,0,experiment,NULL,PennController,36,_Trial_,End,1734465715539,undefined,У меня сейчас самого возникли вопросы к организаторам этого мероприятия.,sam,E,high,False,NULL
# 14. У нас у каждого сегодня есть чем поделиться..
# 15. kazhdy.
# 16. R.
# 18. True.
1734465754,a7fa8215f81f1beca289d1497229968d,PennController,3,0,experiment,NULL,PennController,3,_Trial_,Start,1734465715541,undefined,У нас у каждого сегодня есть чем поделиться.,kazhdy,R,high,True,NULL
1734465754,a7fa8215f81f1beca289d1497229968d,PennController,3,0,experiment,NULL,PennController,3,_Header_,Start,1734465715541,undefined,У нас у каждого сегодня есть чем поделиться.,kazhdy,R,high,True,NULL
1734465754,a7fa8215f81f1beca289d1497229968d,PennController,3,0,experiment,NULL,PennController,3,_Header_,End,1734465715541,undefined,У нас у каждого сегодня есть чем поделиться.,kazhdy,R,high,True,NULL
1734465754,a7fa8215f81f1beca289d1497229968d,PennController,3,0,experiment,NULL,Scale,judgement,Choice,7,1734465719113,undefined,У нас у каждого сегодня есть чем поделиться.,kazhdy,R,high,True,NULL
1734465754,a7fa8215f81f1beca289d1497229968d,PennController,3,0,experiment,NULL,PennController,3,_Trial_,End,1734465719114,undefined,У нас у каждого сегодня есть чем поделиться.,kazhdy,R,high,True,NULL
# 14. Я у него никогда раньше не был у больного..
# 15. depic.
# 16. E.
# 17. low.
1734465754,a7fa8215f81f1beca289d1497229968d,PennController,21,0,experiment,NULL,PennController,21,_Trial_,Start,1734465719116,undefined,Я у него никогда раньше не был у больного.,depic,E,low,True,NULL
1734465754,a7fa8215f81f1beca289d1497229968d,PennController,21,0,experiment,NULL,PennController,21,_Header_,Start,1734465719116,undefined,Я у него никогда раньше не был у больного.,depic,E,low,True,NULL
1734465754,a7fa8215f81f1beca289d1497229968d,PennController,21,0,experiment,NULL,PennController,21,_Header_,End,1734465719116,undefined,Я у него никогда раньше не был у больного.,depic,E,low,True,NULL
1734465754,a7fa8215f81f1beca289d1497229968d,PennController,21,0,experiment,NULL,Scale,judgement,Choice,7,1734465726419,undefined,Я у него никогда раньше не был у больного.,depic,E,low,True,NULL
1734465754,a7fa8215f81f1beca289d1497229968d,PennController,21,0,experiment,NULL,PennController,21,_Trial_,End,1734465726420,undefined,Я у него никогда раньше не был у больного.,depic,E,low,True,NULL
# 14. Он одолжил денег у них всех..
# 15. vse.
# 16. R.
# 18. False.
1734465754,a7fa8215f81f1beca289d1497229968d,PennController,26,0,experiment,NULL,PennController,26,_Trial_,Start,1734465726421,undefined,Он одолжил денег у них всех.,vse,R,low,False,NULL
1734465754,a7fa8215f81f1beca289d1497229968d,PennController,26,0,experiment,NULL,PennController,26,_Header_,Start,1734465726421,undefined,Он одолжил денег у них всех.,vse,R,low,False,NULL
1734465754,a7fa8215f81f1beca289d1497229968d,PennController,26,0,experiment,NULL,PennController,26,_Header_,End,1734465726421,undefined,Он одолжил денег у них всех.,vse,R,low,False,NULL
1734465754,a7fa8215f81f1beca289d1497229968d,PennController,26,0,experiment,NULL,Scale,judgement,Choice,7,1734465729206,undefined,Он одолжил денег у них всех.,vse,R,low,False,NULL
1734465754,a7fa8215f81f1beca289d1497229968d,PennController,26,0,experiment,NULL,PennController,26,_Trial_,End,1734465729208,undefined,Он одолжил денег у них всех.,vse,R,low,False,NULL
# 14. Она мечтала обо всем спросить у него самого..
# 15. sam.
1734465754,a7fa8215f81f1beca289d1497229968d,PennController,28,0,experiment,NULL,PennController,28,_Trial_,Start,1734465729209,undefined,Она мечтала обо всем спросить у него самого.,sam,R,low,False,NULL
1734465754,a7fa8215f81f1beca289d1497229968d,PennController,28,0,experiment,NULL,PennController,28,_Header_,Start,1734465729209,undefined,Она мечтала обо всем спросить у него самого.,sam,R,low,False,NULL
1734465754,a7fa8215f81f1beca289d1497229968d,PennController,28,0,experiment,NULL,PennController,28,_Header_,End,1734465729209,undefined,Она мечтала обо всем спросить у него самого.,sam,R,low,False,NULL
1734465754,a7fa8215f81f1beca289d1497229968d,PennController,28,0,experiment,NULL,Scale,judgement,Choice,7,1734465732084,undefined,Она мечтала обо всем спросить у него самого.,sam,R,low,False,NULL
1734465754,a7fa8215f81f1beca289d1497229968d,PennController,28,0,experiment,NULL,PennController,28,_Trial_,End,1734465732086,undefined,Она мечтала обо всем спросить у него самого.,sam,R,low,False,NULL
# 14. У нас сегодня у каждого есть чем поделиться..
# 15. kazhdy.
# 16. E.
# 17. high.
# 18. True.
1734465754,a7fa8215f81f1beca289d1497229968d,PennController,15,0,experiment,NULL,PennController,15,_Trial_,Start,1734465732087,undefined,У нас сегодня у каждого есть чем поделиться.,kazhdy,E,high,True,NULL
1734465754,a7fa8215f81f1beca289d1497229968d,PennController,15,0,experiment,NULL,PennController,15,_Header_,Start,1734465732087,undefined,У нас сегодня у каждого есть чем поделиться.,kazhdy,E,high,True,NULL
1734465754,a7fa8215f81f1beca289d1497229968d,PennController,15,0,experiment,NULL,PennController,15,_Header_,End,1734465732087,undefined,У нас сегодня у каждого есть чем поделиться.,kazhdy,E,high,True,NULL
1734465754,a7fa8215f81f1beca289d1497229968d,PennController,15,0,experiment,NULL,Scale,judgement,Choice,7,1734465736454,undefined,У нас сегодня у каждого есть чем поделиться.,kazhdy,E,high,True,NULL
1734465754,a7fa8215f81f1beca289d1497229968d,PennController,15,0,experiment,NULL,PennController,15,_Trial_,End,1734465736455,undefined,У нас сегодня у каждого есть чем поделиться.,kazhdy,E,high,True,NULL
# 14. Он одолжил у них денег всех..
# 15. vse.
# 17. low.
# 18. False.
1734465754,a7fa8215f81f1beca289d1497229968d,PennController,38,0,experiment,NULL,PennController,38,_Trial_,Start,1734465736457,undefined,Он одолжил у них денег всех.,vse,E,low,False,NULL
1734465754,a7fa8215f81f1beca289d1497229968d,PennController,38,0,experiment,NULL,PennController,38,_Header_,Start,1734465736457,undefined,Он одолжил у них денег всех.,vse,E,low,False,NULL
1734465754,a7fa8215f81f1beca289d1497229968d,PennController,38,0,experiment,NULL,PennController,38,_Header_,End,1734465736457,undefined,Он одолжил у них денег всех.,vse,E,low,False,NULL
1734465754,a7fa8215f81f1beca289d1497229968d,PennController,38,0,experiment,NULL,Scale,judgement,Choice,1,1734465739225,undefined,Он одолжил у них денег всех.,vse,E,low,False,NULL
1734465754,a7fa8215f81f1beca289d1497229968d,PennController,38,0,experiment,NULL,PennController,38,_Trial_,End,1734465739226,undefined,Он одолжил у них денег всех.,vse,E,low,False,NULL
# 14. У каждого у нас сегодня есть чем поделиться..
# 15. kazhdy.
# 16. L.
# 17. high.
# 18. True.
1734465754,a7fa8215f81f1beca289d1497229968d,PennController,11,0,experiment,NULL,PennController,11,_Trial_,Start,1734465739227,undefined,У каждого у нас сегодня есть чем поделиться.,kazhdy,L,high,True,NULL
1734465754,a7fa8215f81f1beca289d1497229968d,PennController,11,0,experiment,NULL,PennController,11,_Header_,Start,1734465739227,undefined,У каждого у нас сегодня есть чем поделиться.,kazhdy,L,high,True,NULL
1734465754,a7fa8215f81f1beca289d1497229968d,PennController,11,0,experiment,NULL,PennController,11,_Header_,End,1734465739227,undefined,У каждого у нас сегодня есть чем поделиться.,kazhdy,L,high,True,NULL
1734465754,a7fa8215f81f1beca289d1497229968d,PennController,11,0,experiment,NULL,Scale,judgement,Choice,1,1734465742742,undefined,У каждого у нас сегодня есть чем поделиться.,kazhdy,L,high,True,NULL
1734465754,a7fa8215f81f1beca289d1497229968d,PennController,11,0,experiment,NULL,PennController,11,_Trial_,End,1734465742743,undefined,У каждого у нас сегодня есть чем поделиться.,kazhdy,L,high,True,NULL
# 14. Не волнуйся%2C он это спрашивал у нас у каждого..
# 16. R.
# 17. low.
1734465754,a7fa8215f81f1beca289d1497229968d,PennController,7,0,experiment,NULL,PennController,7,_Trial_,Start,1734465742745,undefined,Не волнуйся%2C он это спрашивал у нас у каждого.,kazhdy,R,low,True,NULL
1734465754,a7fa8215f81f1beca289d1497229968d,PennController,7,0,experiment,NULL,PennController,7,_Header_,Start,1734465742745,undefined,Не волнуйся%2C он это спрашивал у нас у каждого.,kazhdy,R,low,True,NULL
1734465754,a7fa8215f81f1beca289d1497229968d,PennController,7,0,experiment,NULL,PennController,7,_Header_,End,1734465742745,undefined,Не волнуйся%2C он это спрашивал у нас у каждого.,kazhdy,R,low,True,NULL
1734465754,a7fa8215f81f1beca289d1497229968d,PennController,7,0,experiment,NULL,Scale,judgement,Choice,7,1734465744957,undefined,Не волнуйся%2C он это спрашивал у нас у каждого.,kazhdy,R,low,True,NULL
1734465754,a7fa8215f81f1beca289d1497229968d,PennController,7,0,experiment,NULL,PennController,7,_Trial_,End,1734465744959,undefined,Не волнуйся%2C он это спрашивал у нас у каждого.,kazhdy,R,low,True,NULL
# 14. У каждого них небось по куче денег..
# 16. L.
# 17. high.
# 18. False.
1734465754,a7fa8215f81f1beca289d1497229968d,PennController,31,0,experiment,NULL,PennController,31,_Trial_,Start,1734465744960,undefined,У каждого них небось по куче денег.,kazhdy,L,high,False,NULL
1734465754,a7fa8215f81f1beca289d1497229968d,PennController,31,0,experiment,NULL,PennController,31,_Header_,Start,1734465744960,undefined,У каждого них небось по куче денег.,kazhdy,L,high,False,NULL
1734465754,a7fa8215f81f1beca289d1497229968d,PennController,31,0,experiment,NULL,PennController,31,_Header_,End,1734465744960,undefined,У каждого них небось по куче денег.,kazhdy,L,high,False,NULL
1734465754,a7fa8215f81f1beca289d1497229968d,PennController,31,0,experiment,NULL,Scale,judgement,Choice,1,1734465747751,undefined,У каждого них небось по куче денег.,kazhdy,L,high,False,NULL
1734465754,a7fa8215f81f1beca289d1497229968d,PennController,31,0,experiment,NULL,PennController,31,_Trial_,End,1734465747753,undefined,У каждого них небось по куче денег.,kazhdy,L,high,False,NULL
# 14. У нас всех недавно произошло трагическое событие..
# 15. vse.
# 16. R.
1734465754,a7fa8215f81f1beca289d1497229968d,PennController,22,0,experiment,NULL,PennController,22,_Trial_,Start,1734465747755,undefined,У нас всех недавно произошло трагическое событие.,vse,R,high,False,NULL
1734465754,a7fa8215f81f1beca289d1497229968d,PennController,22,0,experiment,NULL,PennController,22,_Header_,Start,1734465747755,undefined,У нас всех недавно произошло трагическое событие.,vse,R,high,False,NULL
1734465754,a7fa8215f81f1beca289d1497229968d,PennController,22,0,experiment,NULL,PennController,22,_Header_,End,1734465747755,undefined,У нас всех недавно произошло трагическое событие.,vse,R,high,False,NULL
1734465754,a7fa8215f81f1beca289d1497229968d,PennController,22,0,experiment,NULL,Scale,judgement,Choice,7,1734465751247,undefined,У нас всех недавно произошло трагическое событие.,vse,R,high,False,NULL
1734465754,a7fa8215f81f1beca289d1497229968d,PennController,22,0,experiment,NULL,PennController,22,_Trial_,End,1734465751248,undefined,У нас всех недавно произошло трагическое событие.,vse,R,high,False,NULL
# 14. У него и больного часто получается лучше%2C чем других..
# 15. depic.
1734465754,a7fa8215f81f1beca289d1497229968d,PennController,25,0,experiment,NULL,PennController,25,_Trial_,Start,1734465751250,undefined,У него и больного часто получается лучше%2C чем других.,depic,R,high,False,NULL
1734465754,a7fa8215f81f1beca289d1497229968d,PennController,25,0,experiment,NULL,PennController,25,_Header_,Start,1734465751250,undefined,У него и больного часто получается лучше%2C чем других.,depic,R,high,False,NULL
1734465754,a7fa8215f81f1beca289d1497229968d,PennController,25,0,experiment,NULL,PennController,25,_Header_,End,1734465751250,undefined,У него и больного часто получается лучше%2C чем других.,depic,R,high,False,NULL
1734465754,a7fa8215f81f1beca289d1497229968d,PennController,25,0,experiment,NULL,Scale,judgement,Choice,7,1734465753808,undefined,У него и больного часто получается лучше%2C чем других.,depic,R,high,False,NULL
1734465754,a7fa8215f81f1beca289d1497229968d,PennController,25,0,experiment,NULL,PennController,25,_Trial_,End,1734465753809,undefined,У него и больного часто получается лучше%2C чем других.,depic,R,high,False,NULL
#
# Results on Tue, 17 Dec 2024 20:07:01 GMT
# USER AGENT: Mozilla/5.0 (Macintosh; Intel Mac OS X 10_15_7) AppleWebKit/605.1.15 (KHTML, like Gecko) Version/18.1.1 Safari/605.1.15
# Design number was non-random = 4
#
# Columns below this comment are as follows:
# 1. Results reception time.
# 2. MD5 hash of participant's IP address.
# 3. Controller name.
# 4. Order number of item.
# 5. Inner element number.
# 6. Label.
# 7. Latin Square Group.
# 8. PennElementType.
# 9. PennElementName.
# 10. Parameter.
# 11. Value.
# 12. EventTime.
# 13. id.
# 14. Comments.
1734466021,7f504458c8cfcc5280967e5a2f2dd15f,PennController,1,0,instructions,NULL,PennController,0,_Header_,Start,1734465902008,undefined,NULL
1734466021,7f504458c8cfcc5280967e5a2f2dd15f,PennController,1,0,instructions,NULL,PennController,0,_Trial_,Start,1734465902008,undefined,NULL
1734466021,7f504458c8cfcc5280967e5a2f2dd15f,PennController,1,0,instructions,NULL,PennController,0,_Header_,End,1734465902009,undefined,NULL
1734466021,7f504458c8cfcc5280967e5a2f2dd15f,PennController,1,0,instructions,NULL,Scale,gender,Choice,ж,1734465905434,undefined,NULL
1734466021,7f504458c8cfcc5280967e5a2f2dd15f,PennController,1,0,instructions,NULL,Scale,linguist,Choice,да,1734465907541,undefined,NULL
1734466021,7f504458c8cfcc5280967e5a2f2dd15f,PennController,1,0,instructions,NULL,PennController,0,_Trial_,End,1734465908407,undefined,NULL
1734466021,7f504458c8cfcc5280967e5a2f2dd15f,PennController,1,0,instructions,NULL,TextInput,age,Final,22,1734465908407,undefined,NULL
# 14. Мы уже бывали в гостях у них всех..
# 15. vse.
# 16. R.
# 17. low.
# 18. False.
# 19. Comments.
1734466021,7f504458c8cfcc5280967e5a2f2dd15f,PennController,26,0,experiment,NULL,PennController,26,_Header_,End,1734465908409,undefined,Мы уже бывали в гостях у них всех.,vse,R,low,False,NULL
1734466021,7f504458c8cfcc5280967e5a2f2dd15f,PennController,26,0,experiment,NULL,PennController,26,_Header_,Start,1734465908409,undefined,Мы уже бывали в гостях у них всех.,vse,R,low,False,NULL
1734466021,7f504458c8cfcc5280967e5a2f2dd15f,PennController,26,0,experiment,NULL,PennController,26,_Trial_,Start,1734465908409,undefined,Мы уже бывали в гостях у них всех.,vse,R,low,False,NULL
1734466021,7f504458c8cfcc5280967e5a2f2dd15f,PennController,26,0,experiment,NULL,PennController,26,_Trial_,End,1734465912492,undefined,Мы уже бывали в гостях у них всех.,vse,R,low,False,NULL
1734466021,7f504458c8cfcc5280967e5a2f2dd15f,PennController,26,0,experiment,NULL,Scale,judgement,Choice,5,1734465912492,undefined,Мы уже бывали в гостях у них всех.,vse,R,low,False,NULL
# 14. У нас недавно у всех произошло трагическое событие..
# 16. E.
# 17. high.
# 18. True.
1734466021,7f504458c8cfcc5280967e5a2f2dd15f,PennController,14,0,experiment,NULL,PennController,14,_Header_,End,1734465912493,undefined,У нас недавно у всех произошло трагическое событие.,vse,E,high,True,NULL
1734466021,7f504458c8cfcc5280967e5a2f2dd15f,PennController,14,0,experiment,NULL,PennController,14,_Header_,Start,1734465912493,undefined,У нас недавно у всех произошло трагическое событие.,vse,E,high,True,NULL
1734466021,7f504458c8cfcc5280967e5a2f2dd15f,PennController,14,0,experiment,NULL,PennController,14,_Trial_,Start,1734465912493,undefined,У нас недавно у всех произошло трагическое событие.,vse,E,high,True,NULL
1734466021,7f504458c8cfcc5280967e5a2f2dd15f,PennController,14,0,experiment,NULL,Scale,judgement,Choice,7,1734465917931,undefined,У нас недавно у всех произошло трагическое событие.,vse,E,high,True,NULL
1734466021,7f504458c8cfcc5280967e5a2f2dd15f,PennController,14,0,experiment,NULL,PennController,14,_Trial_,End,1734465917932,undefined,У нас недавно у всех произошло трагическое событие.,vse,E,high,True,NULL
# 14. Она мечтала у него обо всем спросить у самого..
# 15. sam.
# 17. low.
1734466021,7f504458c8cfcc5280967e5a2f2dd15f,PennController,20,0,experiment,NULL,PennController,20,_Header_,Start,1734465917932,undefined,Она мечтала у него обо всем спросить у самого.,sam,E,low,True,NULL
1734466021,7f504458c8cfcc5280967e5a2f2dd15f,PennController,20,0,experiment,NULL,PennController,20,_Trial_,Start,1734465917932,undefined,Она мечтала у него обо всем спросить у самого.,sam,E,low,True,NULL
1734466021,7f504458c8cfcc5280967e5a2f2dd15f,PennController,20,0,experiment,NULL,PennController,20,_Header_,End,1734465917933,undefined,Она мечтала у него обо всем спросить у самого.,sam,E,low,True,NULL
1734466021,7f504458c8cfcc5280967e5a2f2dd15f,PennController,20,0,experiment,NULL,Scale,judgement,Choice,4,1734465921594,undefined,Она мечтала у него обо всем спросить у самого.,sam,E,low,True,NULL
1734466021,7f504458c8cfcc5280967e5a2f2dd15f,PennController,20,0,experiment,NULL,PennController,20,_Trial_,End,1734465921595,undefined,Она мечтала у него обо всем спросить у самого.,sam,E,low,True,NULL
# 14. И у больного у него часто получается лучше%2C чем других..
# 15. depic.
# 16. L.
# 17. high.
1734466021,7f504458c8cfcc5280967e5a2f2dd15f,PennController,13,0,experiment,NULL,PennController,13,_Header_,End,1734465921595,undefined,И у больного у него часто получается лучше%2C чем других.,depic,L,high,True,NULL
1734466021,7f504458c8cfcc5280967e5a2f2dd15f,PennController,13,0,experiment,NULL,PennController,13,_Header_,Start,1734465921595,undefined,И у больного у него часто получается лучше%2C чем других.,depic,L,high,True,NULL
1734466021,7f504458c8cfcc5280967e5a2f2dd15f,PennController,13,0,experiment,NULL,PennController,13,_Trial_,Start,1734465921595,undefined,И у больного у него часто получается лучше%2C чем других.,depic,L,high,True,NULL
1734466021,7f504458c8cfcc5280967e5a2f2dd15f,PennController,13,0,experiment,NULL,Scale,judgement,Choice,6,1734465927162,undefined,И у больного у него часто получается лучше%2C чем других.,depic,L,high,True,NULL
1734466021,7f504458c8cfcc5280967e5a2f2dd15f,PennController,13,0,experiment,NULL,PennController,13,_Trial_,End,1734465927163,undefined,И у больного у него часто получается лучше%2C чем других.,depic,L,high,True,NULL
# 14. У меня у самого сейчас возникли вопросы к организаторам этого мероприятия..
# 15. sam.
# 16. R.
1734466021,7f504458c8cfcc5280967e5a2f2dd15f,PennController,4,0,experiment,NULL,PennController,4,_Header_,End,1734465927164,undefined,У меня у самого сейчас возникли вопросы к организаторам этого мероприятия.,sam,R,high,True,NULL
1734466021,7f504458c8cfcc5280967e5a2f2dd15f,PennController,4,0,experiment,NULL,PennController,4,_Header_,Start,1734465927164,undefined,У меня у самого сейчас возникли вопросы к организаторам этого мероприятия.,sam,R,high,True,NULL
1734466021,7f504458c8cfcc5280967e5a2f2dd15f,PennController,4,0,experiment,NULL,PennController,4,_Trial_,Start,1734465927164,undefined,У меня у самого сейчас возникли вопросы к организаторам этого мероприятия.,sam,R,high,True,NULL
1734466021,7f504458c8cfcc5280967e5a2f2dd15f,PennController,4,0,experiment,NULL,Scale,judgement,Choice,7,1734465929140,undefined,У меня у самого сейчас возникли вопросы к организаторам этого мероприятия.,sam,R,high,True,NULL
1734466021,7f504458c8cfcc5280967e5a2f2dd15f,PennController,4,0,experiment,NULL,PennController,4,_Trial_,End,1734465929141,undefined,У меня у самого сейчас возникли вопросы к организаторам этого мероприятия.,sam,R,high,True,NULL
# 14. У всех у нас недавно произошло трагическое событие..
# 15. vse.
# 16. L.
1734466021,7f504458c8cfcc5280967e5a2f2dd15f,PennController,10,0,experiment,NULL,PennController,10,_Header_,End,1734465929141,undefined,У всех у нас недавно произошло трагическое событие.,vse,L,high,True,NULL
1734466021,7f504458c8cfcc5280967e5a2f2dd15f,PennController,10,0,experiment,NULL,PennController,10,_Header_,Start,1734465929141,undefined,У всех у нас недавно произошло трагическое событие.,vse,L,high,True,NULL
1734466021,7f504458c8cfcc5280967e5a2f2dd15f,PennController,10,0,experiment,NULL,PennController,10,_Trial_,Start,1734465929141,undefined,У всех у нас недавно произошло трагическое событие.,vse,L,high,True,NULL
1734466021,7f504458c8cfcc5280967e5a2f2dd15f,PennController,10,0,experiment,NULL,Scale,judgement,Choice,7,1734465930400,undefined,У всех у нас недавно произошло трагическое событие.,vse,L,high,True,NULL
1734466021,7f504458c8cfcc5280967e5a2f2dd15f,PennController,10,0,experiment,NULL,PennController,10,_Trial_,End,1734465930401,undefined,У всех у нас недавно произошло трагическое событие.,vse,L,high,True,NULL
# 14. Не волнуйся%2C он у нас это спрашивал каждого..
# 15. kazhdy.
# 16. E.
# 17. low.
# 18. False.
1734466021,7f504458c8cfcc5280967e5a2f2dd15f,PennController,39,0,experiment,NULL,PennController,39,_Header_,End,1734465930402,undefined,Не волнуйся%2C он у нас это спрашивал каждого.,kazhdy,E,low,False,NULL
1734466021,7f504458c8cfcc5280967e5a2f2dd15f,PennController,39,0,experiment,NULL,PennController,39,_Header_,Start,1734465930402,undefined,Не волнуйся%2C он у нас это спрашивал каждого.,kazhdy,E,low,False,NULL
1734466021,7f504458c8cfcc5280967e5a2f2dd15f,PennController,39,0,experiment,NULL,PennController,39,_Trial_,Start,1734465930402,undefined,Не волнуйся%2C он у нас это спрашивал каждого.,kazhdy,E,low,False,NULL
1734466021,7f504458c8cfcc5280967e5a2f2dd15f,PennController,39,0,experiment,NULL,PennController,39,_Trial_,End,1734465934578,undefined,Не волнуйся%2C он у нас это спрашивал каждого.,kazhdy,E,low,False,NULL
1734466021,7f504458c8cfcc5280967e5a2f2dd15f,PennController,39,0,experiment,NULL,Scale,judgement,Choice,1,1734465934578,undefined,Не волнуйся%2C он у нас это спрашивал каждого.,kazhdy,E,low,False,NULL
# 14. И у пьяного тебя иногда отлично голова работает..
# 15. depic.
# 16. L.
# 17. high.
1734466021,7f504458c8cfcc5280967e5a2f2dd15f,PennController,33,0,experiment,NULL,PennController,33,_Header_,End,1734465934578,undefined,И у пьяного тебя иногда отлично голова работает.,depic,L,high,False,NULL
1734466021,7f504458c8cfcc5280967e5a2f2dd15f,PennController,33,0,experiment,NULL,PennController,33,_Header_,Start,1734465934578,undefined,И у пьяного тебя иногда отлично голова работает.,depic,L,high,False,NULL
1734466021,7f504458c8cfcc5280967e5a2f2dd15f,PennController,33,0,experiment,NULL,PennController,33,_Trial_,Start,1734465934578,undefined,И у пьяного тебя иногда отлично голова работает.,depic,L,high,False,NULL
1734466021,7f504458c8cfcc5280967e5a2f2dd15f,PennController,33,0,experiment,NULL,Scale,judgement,Choice,6,1734465938591,undefined,И у пьяного тебя иногда отлично голова работает.,depic,L,high,False,NULL
1734466021,7f504458c8cfcc5280967e5a2f2dd15f,PennController,33,0,experiment,NULL,PennController,33,_Trial_,End,1734465938592,undefined,И у пьяного тебя иногда отлично голова работает.,depic,L,high,False,NULL
# 14. Она проверила у нас домашнее задание у каждого..
# 15. kazhdy.
# 16. E.
# 17. low.
# 18. True.
1734466021,7f504458c8cfcc5280967e5a2f2dd15f,PennController,19,0,experiment,NULL,PennController,19,_Header_,End,1734465938592,undefined,Она проверила у нас домашнее задание у каждого.,kazhdy,E,low,True,NULL
1734466021,7f504458c8cfcc5280967e5a2f2dd15f,PennController,19,0,experiment,NULL,PennController,19,_Header_,Start,1734465938592,undefined,Она проверила у нас домашнее задание у каждого.,kazhdy,E,low,True,NULL
1734466021,7f504458c8cfcc5280967e5a2f2dd15f,PennController,19,0,experiment,NULL,PennController,19,_Trial_,Start,1734465938592,undefined,Она проверила у нас домашнее задание у каждого.,kazhdy,E,low,True,NULL
1734466021,7f504458c8cfcc5280967e5a2f2dd15f,PennController,19,0,experiment,NULL,Scale,judgement,Choice,7,1734465940181,undefined,Она проверила у нас домашнее задание у каждого.,kazhdy,E,low,True,NULL
1734466021,7f504458c8cfcc5280967e5a2f2dd15f,PennController,19,0,experiment,NULL,PennController,19,_Trial_,End,1734465940182,undefined,Она проверила у нас домашнее задание у каждого.,kazhdy,E,low,True,NULL
# 14. У нас сегодня каждого есть чем поделиться..
# 17. high.
# 18. False.
1734466021,7f504458c8cfcc5280967e5a2f2dd15f,PennController,35,0,experiment,NULL,PennController,35,_Header_,End,1734465940183,undefined,У нас сегодня каждого есть чем поделиться.,kazhdy,E,high,False,NULL
1734466021,7f504458c8cfcc5280967e5a2f2dd15f,PennController,35,0,experiment,NULL,PennController,35,_Header_,Start,1734465940183,undefined,У нас сегодня каждого есть чем поделиться.,kazhdy,E,high,False,NULL
1734466021,7f504458c8cfcc5280967e5a2f2dd15f,PennController,35,0,experiment,NULL,PennController,35,_Trial_,Start,1734465940183,undefined,У нас сегодня каждого есть чем поделиться.,kazhdy,E,high,False,NULL
1734466021,7f504458c8cfcc5280967e5a2f2dd15f,PennController,35,0,experiment,NULL,Scale,judgement,Choice,1,1734465944533,undefined,У нас сегодня каждого есть чем поделиться.,kazhdy,E,high,False,NULL
1734466021,7f504458c8cfcc5280967e5a2f2dd15f,PennController,35,0,experiment,NULL,PennController,35,_Trial_,End,1734465944534,undefined,У нас сегодня каждого есть чем поделиться.,kazhdy,E,high,False,NULL
# 14. У тебя и пьяного иногда отлично голова работает..
# 15. depic.
# 16. R.
1734466021,7f504458c8cfcc5280967e5a2f2dd15f,PennController,25,0,experiment,NULL,PennController,25,_Header_,End,1734465944534,undefined,У тебя и пьяного иногда отлично голова работает.,depic,R,high,False,NULL
1734466021,7f504458c8cfcc5280967e5a2f2dd15f,PennController,25,0,experiment,NULL,PennController,25,_Header_,Start,1734465944534,undefined,У тебя и пьяного иногда отлично голова работает.,depic,R,high,False,NULL
1734466021,7f504458c8cfcc5280967e5a2f2dd15f,PennController,25,0,experiment,NULL,PennController,25,_Trial_,Start,1734465944534,undefined,У тебя и пьяного иногда отлично голова работает.,depic,R,high,False,NULL
1734466021,7f504458c8cfcc5280967e5a2f2dd15f,PennController,25,0,experiment,NULL,PennController,25,_Trial_,End,1734465948475,undefined,У тебя и пьяного иногда отлично голова работает.,depic,R,high,False,NULL
1734466021,7f504458c8cfcc5280967e5a2f2dd15f,PennController,25,0,experiment,NULL,Scale,judgement,Choice,1,1734465948475,undefined,У тебя и пьяного иногда отлично голова работает.,depic,R,high,False,NULL
# 14. Я каждый раз прошу у него помощи у уставшего..
# 16. E.
# 17. low.
# 18. True.
1734466021,7f504458c8cfcc5280967e5a2f2dd15f,PennController,21,0,experiment,NULL,PennController,21,_Header_,End,1734465948476,undefined,Я каждый раз прошу у него помощи у уставшего.,depic,E,low,True,NULL
1734466021,7f504458c8cfcc5280967e5a2f2dd15f,PennController,21,0,experiment,NULL,PennController,21,_Header_,Start,1734465948476,undefined,Я каждый раз прошу у него помощи у уставшего.,depic,E,low,True,NULL
1734466021,7f504458c8cfcc5280967e5a2f2dd15f,PennController,21,0,experiment,NULL,PennController,21,_Trial_,Start,1734465948476,undefined,Я каждый раз прошу у него помощи у уставшего.,depic,E,low,True,NULL
1734466021,7f504458c8cfcc5280967e5a2f2dd15f,PennController,21,0,experiment,NULL,PennController,21,_Trial_,End,1734465954579,undefined,Я каждый раз прошу у него помощи у уставшего.,depic,E,low,True,NULL
1734466021,7f504458c8cfcc5280967e5a2f2dd15f,PennController,21,0,experiment,NULL,Scale,judgement,Choice,2,1734465954579,undefined,Я каждый раз прошу у него помощи у уставшего.,depic,E,low,True,NULL
# 14. Он одолжил денег у них у всех..
# 15. vse.
# 16. R.
1734466021,7f504458c8cfcc5280967e5a2f2dd15f,PennController,6,0,experiment,NULL,PennController,6,_Header_,End,1734465954580,undefined,Он одолжил денег у них у всех.,vse,R,low,True,NULL
1734466021,7f504458c8cfcc5280967e5a2f2dd15f,PennController,6,0,experiment,NULL,PennController,6,_Header_,Start,1734465954580,undefined,Он одолжил денег у них у всех.,vse,R,low,True,NULL
1734466021,7f504458c8cfcc5280967e5a2f2dd15f,PennController,6,0,experiment,NULL,PennController,6,_Trial_,Start,1734465954580,undefined,Он одолжил денег у них у всех.,vse,R,low,True,NULL
1734466021,7f504458c8cfcc5280967e5a2f2dd15f,PennController,6,0,experiment,NULL,PennController,6,_Trial_,End,1734465955958,undefined,Он одолжил денег у них у всех.,vse,R,low,True,NULL
1734466021,7f504458c8cfcc5280967e5a2f2dd15f,PennController,6,0,experiment,NULL,Scale,judgement,Choice,7,1734465955958,undefined,Он одолжил денег у них у всех.,vse,R,low,True,NULL
# 14. Он одолжил у них денег у всех..
# 16. E.
1734466021,7f504458c8cfcc5280967e5a2f2dd15f,PennController,18,0,experiment,NULL,PennController,18,_Header_,End,1734465955958,undefined,Он одолжил у них денег у всех.,vse,E,low,True,NULL
1734466021,7f504458c8cfcc5280967e5a2f2dd15f,PennController,18,0,experiment,NULL,PennController,18,_Header_,Start,1734465955958,undefined,Он одолжил у них денег у всех.,vse,E,low,True,NULL
1734466021,7f504458c8cfcc5280967e5a2f2dd15f,PennController,18,0,experiment,NULL,PennController,18,_Trial_,Start,1734465955958,undefined,Он одолжил у них денег у всех.,vse,E,low,True,NULL
1734466021,7f504458c8cfcc5280967e5a2f2dd15f,PennController,18,0,experiment,NULL,PennController,18,_Trial_,End,1734465957291,undefined,Он одолжил у них денег у всех.,vse,E,low,True,NULL
1734466021,7f504458c8cfcc5280967e5a2f2dd15f,PennController,18,0,experiment,NULL,Scale,judgement,Choice,7,1734465957291,undefined,Он одолжил у них денег у всех.,vse,E,low,True,NULL
# 14. У тебя иногда и пьяного отлично голова работает..
# 15. depic.
# 17. high.
# 18. False.
1734466021,7f504458c8cfcc5280967e5a2f2dd15f,PennController,37,0,experiment,NULL,PennController,37,_Header_,End,1734465957292,undefined,У тебя иногда и пьяного отлично голова работает.,depic,E,high,False,NULL
1734466021,7f504458c8cfcc5280967e5a2f2dd15f,PennController,37,0,experiment,NULL,PennController,37,_Header_,Start,1734465957292,undefined,У тебя иногда и пьяного отлично голова работает.,depic,E,high,False,NULL
1734466021,7f504458c8cfcc5280967e5a2f2dd15f,PennController,37,0,experiment,NULL,PennController,37,_Trial_,Start,1734465957292,undefined,У тебя иногда и пьяного отлично голова работает.,depic,E,high,False,NULL
1734466021,7f504458c8cfcc5280967e5a2f2dd15f,PennController,37,0,experiment,NULL,Scale,judgement,Choice,1,1734465959981,undefined,У тебя иногда и пьяного отлично голова работает.,depic,E,high,False,NULL
1734466021,7f504458c8cfcc5280967e5a2f2dd15f,PennController,37,0,experiment,NULL,PennController,37,_Trial_,End,1734465959982,undefined,У тебя иногда и пьяного отлично голова работает.,depic,E,high,False,NULL
# 14. Не волнуйся%2C он это спрашивал у нас каждого..
# 15. kazhdy.
# 16. R.
# 17. low.
1734466021,7f504458c8cfcc5280967e5a2f2dd15f,PennController,27,0,experiment,NULL,PennController,27,_Header_,End,1734465959982,undefined,Не волнуйся%2C он это спрашивал у нас каждого.,kazhdy,R,low,False,NULL
1734466021,7f504458c8cfcc5280967e5a2f2dd15f,PennController,27,0,experiment,NULL,PennController,27,_Header_,Start,1734465959982,undefined,Не волнуйся%2C он это спрашивал у нас каждого.,kazhdy,R,low,False,NULL
1734466021,7f504458c8cfcc5280967e5a2f2dd15f,PennController,27,0,experiment,NULL,PennController,27,_Trial_,Start,1734465959982,undefined,Не волнуйся%2C он это спрашивал у нас каждого.,kazhdy,R,low,False,NULL
1734466021,7f504458c8cfcc5280967e5a2f2dd15f,PennController,27,0,experiment,NULL,PennController,27,_Trial_,End,1734465963203,undefined,Не волнуйся%2C он это спрашивал у нас каждого.,kazhdy,R,low,False,NULL
1734466021,7f504458c8cfcc5280967e5a2f2dd15f,PennController,27,0,experiment,NULL,Scale,judgement,Choice,3,1734465963203,undefined,Не волнуйся%2C он это спрашивал у нас каждого.,kazhdy,R,low,False,NULL
# 14. Она мечтала обо всем спросить у него у самого..
# 15. sam.
# 18. True.
1734466021,7f504458c8cfcc5280967e5a2f2dd15f,PennController,8,0,experiment,NULL,PennController,8,_Header_,End,1734465963205,undefined,Она мечтала обо всем спросить у него у самого.,sam,R,low,True,NULL
1734466021,7f504458c8cfcc5280967e5a2f2dd15f,PennController,8,0,experiment,NULL,PennController,8,_Header_,Start,1734465963205,undefined,Она мечтала обо всем спросить у него у самого.,sam,R,low,True,NULL
1734466021,7f504458c8cfcc5280967e5a2f2dd15f,PennController,8,0,experiment,NULL,PennController,8,_Trial_,Start,1734465963205,undefined,Она мечтала обо всем спросить у него у самого.,sam,R,low,True,NULL
1734466021,7f504458c8cfcc5280967e5a2f2dd15f,PennController,8,0,experiment,NULL,PennController,8,_Trial_,End,1734465965279,undefined,Она мечтала обо всем спросить у него у самого.,sam,R,low,True,NULL
1734466021,7f504458c8cfcc5280967e5a2f2dd15f,PennController,8,0,experiment,NULL,Scale,judgement,Choice,7,1734465965279,undefined,Она мечтала обо всем спросить у него у самого.,sam,R,low,True,NULL
# 14. У самого у меня сейчас возникли вопросы к организаторам этого мероприятия..
# 16. L.
# 17. high.
1734466021,7f504458c8cfcc5280967e5a2f2dd15f,PennController,12,0,experiment,NULL,PennController,12,_Header_,End,1734465965280,undefined,У самого у меня сейчас возникли вопросы к организаторам этого мероприятия.,sam,L,high,True,NULL
1734466021,7f504458c8cfcc5280967e5a2f2dd15f,PennController,12,0,experiment,NULL,PennController,12,_Header_,Start,1734465965280,undefined,У самого у меня сейчас возникли вопросы к организаторам этого мероприятия.,sam,L,high,True,NULL
1734466021,7f504458c8cfcc5280967e5a2f2dd15f,PennController,12,0,experiment,NULL,PennController,12,_Trial_,Start,1734465965280,undefined,У самого у меня сейчас возникли вопросы к организаторам этого мероприятия.,sam,L,high,True,NULL
1734466021,7f504458c8cfcc5280967e5a2f2dd15f,PennController,12,0,experiment,NULL,Scale,judgement,Choice,7,1734465967441,undefined,У самого у меня сейчас возникли вопросы к организаторам этого мероприятия.,sam,L,high,True,NULL
1734466021,7f504458c8cfcc5280967e5a2f2dd15f,PennController,12,0,experiment,NULL,PennController,12,_Trial_,End,1734465967442,undefined,У самого у меня сейчас возникли вопросы к организаторам этого мероприятия.,sam,L,high,True,NULL
# 14. У каждого у них небось по куче денег..
# 15. kazhdy.
1734466021,7f504458c8cfcc5280967e5a2f2dd15f,PennController,11,0,experiment,NULL,PennController,11,_Header_,End,1734465967442,undefined,У каждого у них небось по куче денег.,kazhdy,L,high,True,NULL
1734466021,7f504458c8cfcc5280967e5a2f2dd15f,PennController,11,0,experiment,NULL,PennController,11,_Header_,Start,1734465967442,undefined,У каждого у них небось по куче денег.,kazhdy,L,high,True,NULL
1734466021,7f504458c8cfcc5280967e5a2f2dd15f,PennController,11,0,experiment,NULL,PennController,11,_Trial_,Start,1734465967442,undefined,У каждого у них небось по куче денег.,kazhdy,L,high,True,NULL
1734466021,7f504458c8cfcc5280967e5a2f2dd15f,PennController,11,0,experiment,NULL,Scale,judgement,Choice,7,1734465969491,undefined,У каждого у них небось по куче денег.,kazhdy,L,high,True,NULL
1734466021,7f504458c8cfcc5280967e5a2f2dd15f,PennController,11,0,experiment,NULL,PennController,11,_Trial_,End,1734465969492,undefined,У каждого у них небось по куче денег.,kazhdy,L,high,True,NULL
# 14. Я каждый раз прошу помощи у него у уставшего..
# 15. depic.
# 16. R.
# 17. low.
1734466021,7f504458c8cfcc5280967e5a2f2dd15f,PennController,9,0,experiment,NULL,PennController,9,_Header_,End,1734465969493,undefined,Я каждый раз прошу помощи у него у уставшего.,depic,R,low,True,NULL
1734466021,7f504458c8cfcc5280967e5a2f2dd15f,PennController,9,0,experiment,NULL,PennController,9,_Header_,Start,1734465969493,undefined,Я каждый раз прошу помощи у него у уставшего.,depic,R,low,True,NULL
1734466021,7f504458c8cfcc5280967e5a2f2dd15f,PennController,9,0,experiment,NULL,PennController,9,_Trial_,Start,1734465969493,undefined,Я каждый раз прошу помощи у него у уставшего.,depic,R,low,True,NULL
1734466021,7f504458c8cfcc5280967e5a2f2dd15f,PennController,9,0,experiment,NULL,PennController,9,_Trial_,End,1734465972904,undefined,Я каждый раз прошу помощи у него у уставшего.,depic,R,low,True,NULL
1734466021,7f504458c8cfcc5280967e5a2f2dd15f,PennController,9,0,experiment,NULL,Scale,judgement,Choice,2,1734465972904,undefined,Я каждый раз прошу помощи у него у уставшего.,depic,R,low,True,NULL
# 14. У них небось у каждого по куче денег..
# 15. kazhdy.
# 16. E.
# 17. high.
1734466021,7f504458c8cfcc5280967e5a2f2dd15f,PennController,15,0,experiment,NULL,PennController,15,_Header_,End,1734465972904,undefined,У них небось у каждого по куче денег.,kazhdy,E,high,True,NULL
1734466021,7f504458c8cfcc5280967e5a2f2dd15f,PennController,15,0,experiment,NULL,PennController,15,_Header_,Start,1734465972904,undefined,У них небось у каждого по куче денег.,kazhdy,E,high,True,NULL
1734466021,7f504458c8cfcc5280967e5a2f2dd15f,PennController,15,0,experiment,NULL,PennController,15,_Trial_,Start,1734465972904,undefined,У них небось у каждого по куче денег.,kazhdy,E,high,True,NULL
1734466021,7f504458c8cfcc5280967e5a2f2dd15f,PennController,15,0,experiment,NULL,Scale,judgement,Choice,7,1734465974774,undefined,У них небось у каждого по куче денег.,kazhdy,E,high,True,NULL
1734466021,7f504458c8cfcc5280967e5a2f2dd15f,PennController,15,0,experiment,NULL,PennController,15,_Trial_,End,1734465974775,undefined,У них небось у каждого по куче денег.,kazhdy,E,high,True,NULL
# 14. У нас каждого сегодня есть чем поделиться..
# 16. R.
# 18. False.
1734466021,7f504458c8cfcc5280967e5a2f2dd15f,PennController,23,0,experiment,NULL,PennController,23,_Header_,End,1734465974775,undefined,У нас каждого сегодня есть чем поделиться.,kazhdy,R,high,False,NULL
1734466021,7f504458c8cfcc5280967e5a2f2dd15f,PennController,23,0,experiment,NULL,PennController,23,_Header_,Start,1734465974775,undefined,У нас каждого сегодня есть чем поделиться.,kazhdy,R,high,False,NULL
1734466021,7f504458c8cfcc5280967e5a2f2dd15f,PennController,23,0,experiment,NULL,PennController,23,_Trial_,Start,1734465974775,undefined,У нас каждого сегодня есть чем поделиться.,kazhdy,R,high,False,NULL
1734466021,7f504458c8cfcc5280967e5a2f2dd15f,PennController,23,0,experiment,NULL,PennController,23,_Trial_,End,1734465977353,undefined,У нас каждого сегодня есть чем поделиться.,kazhdy,R,high,False,NULL
1734466021,7f504458c8cfcc5280967e5a2f2dd15f,PennController,23,0,experiment,NULL,Scale,judgement,Choice,1,1734465977353,undefined,У нас каждого сегодня есть чем поделиться.,kazhdy,R,high,False,NULL
# 14. Я узнал у нее все детали самой..
# 15. sam.
# 16. E.
# 17. low.
1734466021,7f504458c8cfcc5280967e5a2f2dd15f,PennController,40,0,experiment,NULL,PennController,40,_Header_,End,1734465977354,undefined,Я узнал у нее все детали самой.,sam,E,low,False,NULL
1734466021,7f504458c8cfcc5280967e5a2f2dd15f,PennController,40,0,experiment,NULL,PennController,40,_Header_,Start,1734465977354,undefined,Я узнал у нее все детали самой.,sam,E,low,False,NULL
1734466021,7f504458c8cfcc5280967e5a2f2dd15f,PennController,40,0,experiment,NULL,PennController,40,_Trial_,Start,1734465977354,undefined,Я узнал у нее все детали самой.,sam,E,low,False,NULL
1734466021,7f504458c8cfcc5280967e5a2f2dd15f,PennController,40,0,experiment,NULL,PennController,40,_Trial_,End,1734465980061,undefined,Я узнал у нее все детали самой.,sam,E,low,False,NULL
1734466021,7f504458c8cfcc5280967e5a2f2dd15f,PennController,40,0,experiment,NULL,Scale,judgement,Choice,1,1734465980061,undefined,Я узнал у нее все детали самой.,sam,E,low,False,NULL
# 14. У нас у всех недавно произошло трагическое событие..
# 15. vse.
# 16. R.
# 17. high.
# 18. True.
1734466021,7f504458c8cfcc5280967e5a2f2dd15f,PennController,2,0,experiment,NULL,PennController,2,_Header_,End,1734465980061,undefined,У нас у всех недавно произошло трагическое событие.,vse,R,high,True,NULL
1734466021,7f504458c8cfcc5280967e5a2f2dd15f,PennController,2,0,experiment,NULL,PennController,2,_Header_,Start,1734465980061,undefined,У нас у всех недавно произошло трагическое событие.,vse,R,high,True,NULL
1734466021,7f504458c8cfcc5280967e5a2f2dd15f,PennController,2,0,experiment,NULL,PennController,2,_Trial_,Start,1734465980061,undefined,У нас у всех недавно произошло трагическое событие.,vse,R,high,True,NULL
1734466021,7f504458c8cfcc5280967e5a2f2dd15f,PennController,2,0,experiment,NULL,PennController,2,_Trial_,End,1734465982320,undefined,У нас у всех недавно произошло трагическое событие.,vse,R,high,True,NULL
1734466021,7f504458c8cfcc5280967e5a2f2dd15f,PennController,2,0,experiment,NULL,Scale,judgement,Choice,7,1734465982320,undefined,У нас у всех недавно произошло трагическое событие.,vse,R,high,True,NULL
# 14. У нас всех сегодня очень интересные доклады..
# 18. False.
1734466021,7f504458c8cfcc5280967e5a2f2dd15f,PennController,22,0,experiment,NULL,PennController,22,_Header_,End,1734465982321,undefined,У нас всех сегодня очень интересные доклады.,vse,R,high,False,NULL
1734466021,7f504458c8cfcc5280967e5a2f2dd15f,PennController,22,0,experiment,NULL,PennController,22,_Header_,Start,1734465982321,undefined,У нас всех сегодня очень интересные доклады.,vse,R,high,False,NULL
1734466021,7f504458c8cfcc5280967e5a2f2dd15f,PennController,22,0,experiment,NULL,PennController,22,_Trial_,Start,1734465982321,undefined,У нас всех сегодня очень интересные доклады.,vse,R,high,False,NULL
1734466021,7f504458c8cfcc5280967e5a2f2dd15f,PennController,22,0,experiment,NULL,Scale,judgement,Choice,7,1734465984195,undefined,У нас всех сегодня очень интересные доклады.,vse,R,high,False,NULL
1734466021,7f504458c8cfcc5280967e5a2f2dd15f,PennController,22,0,experiment,NULL,PennController,22,_Trial_,End,1734465984196,undefined,У нас всех сегодня очень интересные доклады.,vse,R,high,False,NULL
# 14. У меня сейчас у самого возникли вопросы к организаторам этого мероприятия..
# 15. sam.
# 16. E.
# 18. True.
1734466021,7f504458c8cfcc5280967e5a2f2dd15f,PennController,16,0,experiment,NULL,PennController,16,_Header_,End,1734465984196,undefined,У меня сейчас у самого возникли вопросы к организаторам этого мероприятия.,sam,E,high,True,NULL
1734466021,7f504458c8cfcc5280967e5a2f2dd15f,PennController,16,0,experiment,NULL,PennController,16,_Header_,Start,1734465984196,undefined,У меня сейчас у самого возникли вопросы к организаторам этого мероприятия.,sam,E,high,True,NULL
1734466021,7f504458c8cfcc5280967e5a2f2dd15f,PennController,16,0,experiment,NULL,PennController,16,_Trial_,Start,1734465984196,undefined,У меня сейчас у самого возникли вопросы к организаторам этого мероприятия.,sam,E,high,True,NULL
1734466021,7f504458c8cfcc5280967e5a2f2dd15f,PennController,16,0,experiment,NULL,PennController,16,_Trial_,End,1734465986961,undefined,У меня сейчас у самого возникли вопросы к организаторам этого мероприятия.,sam,E,high,True,NULL
1734466021,7f504458c8cfcc5280967e5a2f2dd15f,PennController,16,0,experiment,NULL,Scale,judgement,Choice,7,1734465986961,undefined,У меня сейчас у самого возникли вопросы к организаторам этого мероприятия.,sam,E,high,True,NULL
# 14. У каждого нас сегодня есть чем поделиться..
# 15. kazhdy.
# 16. L.
# 18. False.
1734466021,7f504458c8cfcc5280967e5a2f2dd15f,PennController,31,0,experiment,NULL,PennController,31,_Header_,End,1734465986962,undefined,У каждого нас сегодня есть чем поделиться.,kazhdy,L,high,False,NULL
1734466021,7f504458c8cfcc5280967e5a2f2dd15f,PennController,31,0,experiment,NULL,PennController,31,_Header_,Start,1734465986962,undefined,У каждого нас сегодня есть чем поделиться.,kazhdy,L,high,False,NULL
1734466021,7f504458c8cfcc5280967e5a2f2dd15f,PennController,31,0,experiment,NULL,PennController,31,_Trial_,Start,1734465986962,undefined,У каждого нас сегодня есть чем поделиться.,kazhdy,L,high,False,NULL
1734466021,7f504458c8cfcc5280967e5a2f2dd15f,PennController,31,0,experiment,NULL,PennController,31,_Trial_,End,1734465988824,undefined,У каждого нас сегодня есть чем поделиться.,kazhdy,L,high,False,NULL
1734466021,7f504458c8cfcc5280967e5a2f2dd15f,PennController,31,0,experiment,NULL,Scale,judgement,Choice,1,1734465988824,undefined,У каждого нас сегодня есть чем поделиться.,kazhdy,L,high,False,NULL
# 14. У него самого теперь почти нет денег..
# 15. sam.
# 16. R.
1734466021,7f504458c8cfcc5280967e5a2f2dd15f,PennController,24,0,experiment,NULL,PennController,24,_Header_,End,1734465988825,undefined,У него самого теперь почти нет денег.,sam,R,high,False,NULL
1734466021,7f504458c8cfcc5280967e5a2f2dd15f,PennController,24,0,experiment,NULL,PennController,24,_Header_,Start,1734465988825,undefined,У него самого теперь почти нет денег.,sam,R,high,False,NULL
1734466021,7f504458c8cfcc5280967e5a2f2dd15f,PennController,24,0,experiment,NULL,PennController,24,_Trial_,Start,1734465988825,undefined,У него самого теперь почти нет денег.,sam,R,high,False,NULL
1734466021,7f504458c8cfcc5280967e5a2f2dd15f,PennController,24,0,experiment,NULL,PennController,24,_Trial_,End,1734465991304,undefined,У него самого теперь почти нет денег.,sam,R,high,False,NULL
1734466021,7f504458c8cfcc5280967e5a2f2dd15f,PennController,24,0,experiment,NULL,Scale,judgement,Choice,7,1734465991304,undefined,У него самого теперь почти нет денег.,sam,R,high,False,NULL
# 14. У него теперь самого почти нет денег..
# 16. E.
1734466021,7f504458c8cfcc5280967e5a2f2dd15f,PennController,36,0,experiment,NULL,PennController,36,_Header_,End,1734465991305,undefined,У него теперь самого почти нет денег.,sam,E,high,False,NULL
1734466021,7f504458c8cfcc5280967e5a2f2dd15f,PennController,36,0,experiment,NULL,PennController,36,_Header_,Start,1734465991305,undefined,У него теперь самого почти нет денег.,sam,E,high,False,NULL
1734466021,7f504458c8cfcc5280967e5a2f2dd15f,PennController,36,0,experiment,NULL,PennController,36,_Trial_,Start,1734465991305,undefined,У него теперь самого почти нет денег.,sam,E,high,False,NULL
1734466021,7f504458c8cfcc5280967e5a2f2dd15f,PennController,36,0,experiment,NULL,Scale,judgement,Choice,1,1734465993407,undefined,У него теперь самого почти нет денег.,sam,E,high,False,NULL
1734466021,7f504458c8cfcc5280967e5a2f2dd15f,PennController,36,0,experiment,NULL,PennController,36,_Trial_,End,1734465993408,undefined,У него теперь самого почти нет денег.,sam,E,high,False,NULL
# 14. У нас сегодня всех очень интересные доклады..
# 15. vse.
1734466021,7f504458c8cfcc5280967e5a2f2dd15f,PennController,34,0,experiment,NULL,PennController,34,_Header_,End,1734465993409,undefined,У нас сегодня всех очень интересные доклады.,vse,E,high,False,NULL
1734466021,7f504458c8cfcc5280967e5a2f2dd15f,PennController,34,0,experiment,NULL,PennController,34,_Header_,Start,1734465993409,undefined,У нас сегодня всех очень интересные доклады.,vse,E,high,False,NULL
1734466021,7f504458c8cfcc5280967e5a2f2dd15f,PennController,34,0,experiment,NULL,PennController,34,_Trial_,Start,1734465993409,undefined,У нас сегодня всех очень интересные доклады.,vse,E,high,False,NULL
1734466021,7f504458c8cfcc5280967e5a2f2dd15f,PennController,34,0,experiment,NULL,Scale,judgement,Choice,4,1734465997595,undefined,У нас сегодня всех очень интересные доклады.,vse,E,high,False,NULL
1734466021,7f504458c8cfcc5280967e5a2f2dd15f,PennController,34,0,experiment,NULL,PennController,34,_Trial_,End,1734465997596,undefined,У нас сегодня всех очень интересные доклады.,vse,E,high,False,NULL
# 14. У них у каждого небось по куче денег..
# 15. kazhdy.
# 16. R.
# 18. True.
1734466021,7f504458c8cfcc5280967e5a2f2dd15f,PennController,3,0,experiment,NULL,PennController,3,_Header_,End,1734465997596,undefined,У них у каждого небось по куче денег.,kazhdy,R,high,True,NULL
1734466021,7f504458c8cfcc5280967e5a2f2dd15f,PennController,3,0,experiment,NULL,PennController,3,_Header_,Start,1734465997596,undefined,У них у каждого небось по куче денег.,kazhdy,R,high,True,NULL
1734466021,7f504458c8cfcc5280967e5a2f2dd15f,PennController,3,0,experiment,NULL,PennController,3,_Trial_,Start,1734465997596,undefined,У них у каждого небось по куче денег.,kazhdy,R,high,True,NULL
1734466021,7f504458c8cfcc5280967e5a2f2dd15f,PennController,3,0,experiment,NULL,PennController,3,_Trial_,End,1734465999441,undefined,У них у каждого небось по куче денег.,kazhdy,R,high,True,NULL
1734466021,7f504458c8cfcc5280967e5a2f2dd15f,PennController,3,0,experiment,NULL,Scale,judgement,Choice,7,1734465999441,undefined,У них у каждого небось по куче денег.,kazhdy,R,high,True,NULL
# 14. Я никогда раньше не был у него больного..
# 15. depic.
# 17. low.
# 18. False.
1734466021,7f504458c8cfcc5280967e5a2f2dd15f,PennController,29,0,experiment,NULL,PennController,29,_Header_,End,1734465999442,undefined,Я никогда раньше не был у него больного.,depic,R,low,False,NULL
1734466021,7f504458c8cfcc5280967e5a2f2dd15f,PennController,29,0,experiment,NULL,PennController,29,_Header_,Start,1734465999442,undefined,Я никогда раньше не был у него больного.,depic,R,low,False,NULL
1734466021,7f504458c8cfcc5280967e5a2f2dd15f,PennController,29,0,experiment,NULL,PennController,29,_Trial_,Start,1734465999442,undefined,Я никогда раньше не был у него больного.,depic,R,low,False,NULL
1734466021,7f504458c8cfcc5280967e5a2f2dd15f,PennController,29,0,experiment,NULL,PennController,29,_Trial_,End,1734466003367,undefined,Я никогда раньше не был у него больного.,depic,R,low,False,NULL
1734466021,7f504458c8cfcc5280967e5a2f2dd15f,PennController,29,0,experiment,NULL,Scale,judgement,Choice,2,1734466003367,undefined,Я никогда раньше не был у него больного.,depic,R,low,False,NULL
# 14. У него и у больного часто получается лучше%2C чем других..
# 17. high.
# 18. True.
1734466021,7f504458c8cfcc5280967e5a2f2dd15f,PennController,5,0,experiment,NULL,PennController,5,_Header_,End,1734466003367,undefined,У него и у больного часто получается лучше%2C чем других.,depic,R,high,True,NULL
1734466021,7f504458c8cfcc5280967e5a2f2dd15f,PennController,5,0,experiment,NULL,PennController,5,_Header_,Start,1734466003367,undefined,У него и у больного часто получается лучше%2C чем других.,depic,R,high,True,NULL
1734466021,7f504458c8cfcc5280967e5a2f2dd15f,PennController,5,0,experiment,NULL,PennController,5,_Trial_,Start,1734466003367,undefined,У него и у больного часто получается лучше%2C чем других.,depic,R,high,True,NULL
1734466021,7f504458c8cfcc5280967e5a2f2dd15f,PennController,5,0,experiment,NULL,PennController,5,_Trial_,End,1734466004862,undefined,У него и у больного часто получается лучше%2C чем других.,depic,R,high,True,NULL
1734466021,7f504458c8cfcc5280967e5a2f2dd15f,PennController,5,0,experiment,NULL,Scale,judgement,Choice,7,1734466004862,undefined,У него и у больного часто получается лучше%2C чем других.,depic,R,high,True,NULL
# 14. Она проверила домашнее задание у нас у каждого..
# 15. kazhdy.
# 17. low.
1734466021,7f504458c8cfcc5280967e5a2f2dd15f,PennController,7,0,experiment,NULL,PennController,7,_Header_,End,1734466004863,undefined,Она проверила домашнее задание у нас у каждого.,kazhdy,R,low,True,NULL
1734466021,7f504458c8cfcc5280967e5a2f2dd15f,PennController,7,0,experiment,NULL,PennController,7,_Header_,Start,1734466004863,undefined,Она проверила домашнее задание у нас у каждого.,kazhdy,R,low,True,NULL
1734466021,7f504458c8cfcc5280967e5a2f2dd15f,PennController,7,0,experiment,NULL,PennController,7,_Trial_,Start,1734466004863,undefined,Она проверила домашнее задание у нас у каждого.,kazhdy,R,low,True,NULL
1734466021,7f504458c8cfcc5280967e5a2f2dd15f,PennController,7,0,experiment,NULL,PennController,7,_Trial_,End,1734466006766,undefined,Она проверила домашнее задание у нас у каждого.,kazhdy,R,low,True,NULL
1734466021,7f504458c8cfcc5280967e5a2f2dd15f,PennController,7,0,experiment,NULL,Scale,judgement,Choice,7,1734466006766,undefined,Она проверила домашнее задание у нас у каждого.,kazhdy,R,low,True,NULL
# 14. Я узнал все детали у нее самой..
# 15. sam.
# 18. False.
1734466021,7f504458c8cfcc5280967e5a2f2dd15f,PennController,28,0,experiment,NULL,PennController,28,_Header_,End,1734466006767,undefined,Я узнал все детали у нее самой.,sam,R,low,False,NULL
1734466021,7f504458c8cfcc5280967e5a2f2dd15f,PennController,28,0,experiment,NULL,PennController,28,_Header_,Start,1734466006767,undefined,Я узнал все детали у нее самой.,sam,R,low,False,NULL
1734466021,7f504458c8cfcc5280967e5a2f2dd15f,PennController,28,0,experiment,NULL,PennController,28,_Trial_,Start,1734466006767,undefined,Я узнал все детали у нее самой.,sam,R,low,False,NULL
1734466021,7f504458c8cfcc5280967e5a2f2dd15f,PennController,28,0,experiment,NULL,Scale,judgement,Choice,7,1734466008312,undefined,Я узнал все детали у нее самой.,sam,R,low,False,NULL
1734466021,7f504458c8cfcc5280967e5a2f2dd15f,PennController,28,0,experiment,NULL,PennController,28,_Trial_,End,1734466008313,undefined,Я узнал все детали у нее самой.,sam,R,low,False,NULL
# 14. У самого него теперь почти нет денег..
# 16. L.
# 17. high.
1734466021,7f504458c8cfcc5280967e5a2f2dd15f,PennController,32,0,experiment,NULL,PennController,32,_Header_,End,1734466008313,undefined,У самого него теперь почти нет денег.,sam,L,high,False,NULL
1734466021,7f504458c8cfcc5280967e5a2f2dd15f,PennController,32,0,experiment,NULL,PennController,32,_Header_,Start,1734466008313,undefined,У самого него теперь почти нет денег.,sam,L,high,False,NULL
1734466021,7f504458c8cfcc5280967e5a2f2dd15f,PennController,32,0,experiment,NULL,PennController,32,_Trial_,Start,1734466008313,undefined,У самого него теперь почти нет денег.,sam,L,high,False,NULL
1734466021,7f504458c8cfcc5280967e5a2f2dd15f,PennController,32,0,experiment,NULL,PennController,32,_Trial_,End,1734466011038,undefined,У самого него теперь почти нет денег.,sam,L,high,False,NULL
1734466021,7f504458c8cfcc5280967e5a2f2dd15f,PennController,32,0,experiment,NULL,Scale,judgement,Choice,7,1734466011038,undefined,У самого него теперь почти нет денег.,sam,L,high,False,NULL
# 14. Мы у них уже бывали в гостях всех..
# 15. vse.
# 16. E.
# 17. low.
1734466021,7f504458c8cfcc5280967e5a2f2dd15f,PennController,38,0,experiment,NULL,PennController,38,_Header_,End,1734466011038,undefined,Мы у них уже бывали в гостях всех.,vse,E,low,False,NULL
1734466021,7f504458c8cfcc5280967e5a2f2dd15f,PennController,38,0,experiment,NULL,PennController,38,_Header_,Start,1734466011038,undefined,Мы у них уже бывали в гостях всех.,vse,E,low,False,NULL
1734466021,7f504458c8cfcc5280967e5a2f2dd15f,PennController,38,0,experiment,NULL,PennController,38,_Trial_,Start,1734466011038,undefined,Мы у них уже бывали в гостях всех.,vse,E,low,False,NULL
1734466021,7f504458c8cfcc5280967e5a2f2dd15f,PennController,38,0,experiment,NULL,Scale,judgement,Choice,1,1734466013220,undefined,Мы у них уже бывали в гостях всех.,vse,E,low,False,NULL
1734466021,7f504458c8cfcc5280967e5a2f2dd15f,PennController,38,0,experiment,NULL,PennController,38,_Trial_,End,1734466013221,undefined,Мы у них уже бывали в гостях всех.,vse,E,low,False,NULL
# 14. У него часто и у больного получается лучше%2C чем других..
# 15. depic.
# 17. high.
# 18. True.
1734466021,7f504458c8cfcc5280967e5a2f2dd15f,PennController,17,0,experiment,NULL,PennController,17,_Header_,End,1734466013221,undefined,У него часто и у больного получается лучше%2C чем других.,depic,E,high,True,NULL
1734466021,7f504458c8cfcc5280967e5a2f2dd15f,PennController,17,0,experiment,NULL,PennController,17,_Header_,Start,1734466013221,undefined,У него часто и у больного получается лучше%2C чем других.,depic,E,high,True,NULL
1734466021,7f504458c8cfcc5280967e5a2f2dd15f,PennController,17,0,experiment,NULL,PennController,17,_Trial_,Start,1734466013221,undefined,У него часто и у больного получается лучше%2C чем других.,depic,E,high,True,NULL
1734466021,7f504458c8cfcc5280967e5a2f2dd15f,PennController,17,0,experiment,NULL,PennController,17,_Trial_,End,1734466016358,undefined,У него часто и у больного получается лучше%2C чем других.,depic,E,high,True,NULL
1734466021,7f504458c8cfcc5280967e5a2f2dd15f,PennController,17,0,experiment,NULL,Scale,judgement,Choice,7,1734466016358,undefined,У него часто и у больного получается лучше%2C чем других.,depic,E,high,True,NULL
# 14. Я у него никогда раньше не был больного..
# 17. low.
# 18. False.
1734466021,7f504458c8cfcc5280967e5a2f2dd15f,PennController,41,0,experiment,NULL,PennController,41,_Header_,End,1734466016359,undefined,Я у него никогда раньше не был больного.,depic,E,low,False,NULL
1734466021,7f504458c8cfcc5280967e5a2f2dd15f,PennController,41,0,experiment,NULL,PennController,41,_Header_,Start,1734466016359,undefined,Я у него никогда раньше не был больного.,depic,E,low,False,NULL
1734466021,7f504458c8cfcc5280967e5a2f2dd15f,PennController,41,0,experiment,NULL,PennController,41,_Trial_,Start,1734466016359,undefined,Я у него никогда раньше не был больного.,depic,E,low,False,NULL
1734466021,7f504458c8cfcc5280967e5a2f2dd15f,PennController,41,0,experiment,NULL,PennController,41,_Trial_,End,1734466018271,undefined,Я у него никогда раньше не был больного.,depic,E,low,False,NULL
1734466021,7f504458c8cfcc5280967e5a2f2dd15f,PennController,41,0,experiment,NULL,Scale,judgement,Choice,1,1734466018271,undefined,Я у него никогда раньше не был больного.,depic,E,low,False,NULL
# 14. У всех нас сегодня очень интересные доклады..
# 15. vse.
# 16. L.
# 17. high.
1734466021,7f504458c8cfcc5280967e5a2f2dd15f,PennController,30,0,experiment,NULL,PennController,30,_Header_,End,1734466018272,undefined,У всех нас сегодня очень интересные доклады.,vse,L,high,False,NULL
1734466021,7f504458c8cfcc5280967e5a2f2dd15f,PennController,30,0,experiment,NULL,PennController,30,_Header_,Start,1734466018272,undefined,У всех нас сегодня очень интересные доклады.,vse,L,high,False,NULL
1734466021,7f504458c8cfcc5280967e5a2f2dd15f,PennController,30,0,experiment,NULL,PennController,30,_Trial_,Start,1734466018272,undefined,У всех нас сегодня очень интересные доклады.,vse,L,high,False,NULL
1734466021,7f504458c8cfcc5280967e5a2f2dd15f,PennController,30,0,experiment,NULL,PennController,30,_Trial_,End,1734466021254,undefined,У всех нас сегодня очень интересные доклады.,vse,L,high,False,NULL
1734466021,7f504458c8cfcc5280967e5a2f2dd15f,PennController,30,0,experiment,NULL,Scale,judgement,Choice,7,1734466021254,undefined,У всех нас сегодня очень интересные доклады.,vse,L,high,False,NULL
#
# Results on Tue, 17 Dec 2024 20:22:33 GMT
# USER AGENT: Mozilla/5.0 (Linux; Android 12; K) AppleWebKit/537.36 (KHTML, like Gecko) Chrome/131.0.6778.135 Mobile Safari/537.36
# Design number was non-random = 5
#
# Columns below this comment are as follows:
# 1. Results reception time.
# 2. MD5 hash of participant's IP address.
# 3. Controller name.
# 4. Order number of item.
# 5. Inner element number.
# 6. Label.
# 7. Latin Square Group.
# 8. PennElementType.
# 9. PennElementName.
# 10. Parameter.
# 11. Value.
# 12. EventTime.
# 13. id.
# 14. Comments.
1734466953,bea2a5a0d5d8731c3f486525d6f9825a,PennController,1,0,instructions,NULL,PennController,0,_Trial_,Start,1734466670590,undefined,NULL
1734466953,bea2a5a0d5d8731c3f486525d6f9825a,PennController,1,0,instructions,NULL,PennController,0,_Header_,Start,1734466670590,undefined,NULL
1734466953,bea2a5a0d5d8731c3f486525d6f9825a,PennController,1,0,instructions,NULL,PennController,0,_Header_,End,1734466670592,undefined,NULL
1734466953,bea2a5a0d5d8731c3f486525d6f9825a,PennController,1,0,instructions,NULL,Scale,gender,Choice,ж,1734466697223,undefined,NULL
1734466953,bea2a5a0d5d8731c3f486525d6f9825a,PennController,1,0,instructions,NULL,Scale,linguist,Choice,нет,1734466699624,undefined,NULL
1734466953,bea2a5a0d5d8731c3f486525d6f9825a,PennController,1,0,instructions,NULL,TextInput,age,Final,22,1734466700782,undefined,NULL
1734466953,bea2a5a0d5d8731c3f486525d6f9825a,PennController,1,0,instructions,NULL,PennController,0,_Trial_,End,1734466700784,undefined,NULL
# 14. У тебя и пьяного иногда отлично голова работает..
# 15. depic.
# 16. R.
# 17. high.
# 18. False.
# 19. Comments.
1734466953,bea2a5a0d5d8731c3f486525d6f9825a,PennController,25,0,experiment,NULL,PennController,25,_Trial_,Start,1734466700789,undefined,У тебя и пьяного иногда отлично голова работает.,depic,R,high,False,NULL
1734466953,bea2a5a0d5d8731c3f486525d6f9825a,PennController,25,0,experiment,NULL,PennController,25,_Header_,Start,1734466700789,undefined,У тебя и пьяного иногда отлично голова работает.,depic,R,high,False,NULL
1734466953,bea2a5a0d5d8731c3f486525d6f9825a,PennController,25,0,experiment,NULL,PennController,25,_Header_,End,1734466700790,undefined,У тебя и пьяного иногда отлично голова работает.,depic,R,high,False,NULL
1734466953,bea2a5a0d5d8731c3f486525d6f9825a,PennController,25,0,experiment,NULL,Scale,judgement,Choice,3,1734466715474,undefined,У тебя и пьяного иногда отлично голова работает.,depic,R,high,False,NULL
1734466953,bea2a5a0d5d8731c3f486525d6f9825a,PennController,25,0,experiment,NULL,PennController,25,_Trial_,End,1734466715478,undefined,У тебя и пьяного иногда отлично голова работает.,depic,R,high,False,NULL
# 14. У всех нас сегодня очень интересные доклады..
# 15. vse.
# 16. L.
1734466953,bea2a5a0d5d8731c3f486525d6f9825a,PennController,30,0,experiment,NULL,PennController,30,_Trial_,Start,1734466715481,undefined,У всех нас сегодня очень интересные доклады.,vse,L,high,False,NULL
1734466953,bea2a5a0d5d8731c3f486525d6f9825a,PennController,30,0,experiment,NULL,PennController,30,_Header_,Start,1734466715481,undefined,У всех нас сегодня очень интересные доклады.,vse,L,high,False,NULL
1734466953,bea2a5a0d5d8731c3f486525d6f9825a,PennController,30,0,experiment,NULL,PennController,30,_Header_,End,1734466715481,undefined,У всех нас сегодня очень интересные доклады.,vse,L,high,False,NULL
1734466953,bea2a5a0d5d8731c3f486525d6f9825a,PennController,30,0,experiment,NULL,Scale,judgement,Choice,6,1734466722066,undefined,У всех нас сегодня очень интересные доклады.,vse,L,high,False,NULL
1734466953,bea2a5a0d5d8731c3f486525d6f9825a,PennController,30,0,experiment,NULL,PennController,30,_Trial_,End,1734466722069,undefined,У всех нас сегодня очень интересные доклады.,vse,L,high,False,NULL
# 14. У самого у меня сейчас возникли вопросы к организаторам этого мероприятия..
# 15. sam.
# 18. True.
1734466953,bea2a5a0d5d8731c3f486525d6f9825a,PennController,12,0,experiment,NULL,PennController,12,_Trial_,Start,1734466722072,undefined,У самого у меня сейчас возникли вопросы к организаторам этого мероприятия.,sam,L,high,True,NULL
1734466953,bea2a5a0d5d8731c3f486525d6f9825a,PennController,12,0,experiment,NULL,PennController,12,_Header_,Start,1734466722072,undefined,У самого у меня сейчас возникли вопросы к организаторам этого мероприятия.,sam,L,high,True,NULL
1734466953,bea2a5a0d5d8731c3f486525d6f9825a,PennController,12,0,experiment,NULL,PennController,12,_Header_,End,1734466722072,undefined,У самого у меня сейчас возникли вопросы к организаторам этого мероприятия.,sam,L,high,True,NULL
1734466953,bea2a5a0d5d8731c3f486525d6f9825a,PennController,12,0,experiment,NULL,Scale,judgement,Choice,1,1734466726937,undefined,У самого у меня сейчас возникли вопросы к организаторам этого мероприятия.,sam,L,high,True,NULL
1734466953,bea2a5a0d5d8731c3f486525d6f9825a,PennController,12,0,experiment,NULL,PennController,12,_Trial_,End,1734466726940,undefined,У самого у меня сейчас возникли вопросы к организаторам этого мероприятия.,sam,L,high,True,NULL
# 14. У меня у самого сейчас возникли вопросы к организаторам этого мероприятия..
# 16. R.
1734466953,bea2a5a0d5d8731c3f486525d6f9825a,PennController,4,0,experiment,NULL,PennController,4,_Trial_,Start,1734466726943,undefined,У меня у самого сейчас возникли вопросы к организаторам этого мероприятия.,sam,R,high,True,NULL
1734466953,bea2a5a0d5d8731c3f486525d6f9825a,PennController,4,0,experiment,NULL,PennController,4,_Header_,Start,1734466726943,undefined,У меня у самого сейчас возникли вопросы к организаторам этого мероприятия.,sam,R,high,True,NULL
1734466953,bea2a5a0d5d8731c3f486525d6f9825a,PennController,4,0,experiment,NULL,PennController,4,_Header_,End,1734466726943,undefined,У меня у самого сейчас возникли вопросы к организаторам этого мероприятия.,sam,R,high,True,NULL
1734466953,bea2a5a0d5d8731c3f486525d6f9825a,PennController,4,0,experiment,NULL,Scale,judgement,Choice,3,1734466732477,undefined,У меня у самого сейчас возникли вопросы к организаторам этого мероприятия.,sam,R,high,True,NULL
1734466953,bea2a5a0d5d8731c3f486525d6f9825a,PennController,4,0,experiment,NULL,PennController,4,_Trial_,End,1734466732480,undefined,У меня у самого сейчас возникли вопросы к организаторам этого мероприятия.,sam,R,high,True,NULL
# 14. Она мечтала у него обо всем спросить у самого..
# 16. E.
# 17. low.
1734466953,bea2a5a0d5d8731c3f486525d6f9825a,PennController,20,0,experiment,NULL,PennController,20,_Trial_,Start,1734466732483,undefined,Она мечтала у него обо всем спросить у самого.,sam,E,low,True,NULL
1734466953,bea2a5a0d5d8731c3f486525d6f9825a,PennController,20,0,experiment,NULL,PennController,20,_Header_,Start,1734466732483,undefined,Она мечтала у него обо всем спросить у самого.,sam,E,low,True,NULL
1734466953,bea2a5a0d5d8731c3f486525d6f9825a,PennController,20,0,experiment,NULL,PennController,20,_Header_,End,1734466732484,undefined,Она мечтала у него обо всем спросить у самого.,sam,E,low,True,NULL
1734466953,bea2a5a0d5d8731c3f486525d6f9825a,PennController,20,0,experiment,NULL,Scale,judgement,Choice,1,1734466736629,undefined,Она мечтала у него обо всем спросить у самого.,sam,E,low,True,NULL
1734466953,bea2a5a0d5d8731c3f486525d6f9825a,PennController,20,0,experiment,NULL,PennController,20,_Trial_,End,1734466736631,undefined,Она мечтала у него обо всем спросить у самого.,sam,E,low,True,NULL
# 14. У них у каждого небось по куче денег..
# 15. kazhdy.
# 16. R.
# 17. high.
1734466953,bea2a5a0d5d8731c3f486525d6f9825a,PennController,3,0,experiment,NULL,PennController,3,_Trial_,Start,1734466736634,undefined,У них у каждого небось по куче денег.,kazhdy,R,high,True,NULL
1734466953,bea2a5a0d5d8731c3f486525d6f9825a,PennController,3,0,experiment,NULL,PennController,3,_Header_,Start,1734466736634,undefined,У них у каждого небось по куче денег.,kazhdy,R,high,True,NULL
1734466953,bea2a5a0d5d8731c3f486525d6f9825a,PennController,3,0,experiment,NULL,PennController,3,_Header_,End,1734466736634,undefined,У них у каждого небось по куче денег.,kazhdy,R,high,True,NULL
1734466953,bea2a5a0d5d8731c3f486525d6f9825a,PennController,3,0,experiment,NULL,Scale,judgement,Choice,7,1734466740320,undefined,У них у каждого небось по куче денег.,kazhdy,R,high,True,NULL
1734466953,bea2a5a0d5d8731c3f486525d6f9825a,PennController,3,0,experiment,NULL,PennController,3,_Trial_,End,1734466740323,undefined,У них у каждого небось по куче денег.,kazhdy,R,high,True,NULL
# 14. У меня сейчас у самого возникли вопросы к организаторам этого мероприятия..
# 15. sam.
# 16. E.
1734466953,bea2a5a0d5d8731c3f486525d6f9825a,PennController,16,0,experiment,NULL,PennController,16,_Trial_,Start,1734466740325,undefined,У меня сейчас у самого возникли вопросы к организаторам этого мероприятия.,sam,E,high,True,NULL
1734466953,bea2a5a0d5d8731c3f486525d6f9825a,PennController,16,0,experiment,NULL,PennController,16,_Header_,Start,1734466740325,undefined,У меня сейчас у самого возникли вопросы к организаторам этого мероприятия.,sam,E,high,True,NULL
1734466953,bea2a5a0d5d8731c3f486525d6f9825a,PennController,16,0,experiment,NULL,PennController,16,_Header_,End,1734466740325,undefined,У меня сейчас у самого возникли вопросы к организаторам этого мероприятия.,sam,E,high,True,NULL
1734466953,bea2a5a0d5d8731c3f486525d6f9825a,PennController,16,0,experiment,NULL,Scale,judgement,Choice,5,1734466752260,undefined,У меня сейчас у самого возникли вопросы к организаторам этого мероприятия.,sam,E,high,True,NULL
